"STUDYID","DOMAIN","USUBJID","SUBJID","RFSTDTC","RFENDTC","RFXSTDTC","RFXENDTC","RFICDTC","RFPENDTC","DTHDTC","DTHFL","SITEID","INVID","INVNAM","BRTHDTC","AGE","AGEU","SEX","RACE","ETHNIC","ARMCD","ARM","ACTARMCD","ACTARM","COUNTRY","DMDTC","DMDY"
"STUDY-01","DM","STUDY-01-1","1","2013-12-18T09:00","2013-12-28T09:00","2013-12-18T09:00","2013-12-28T09:00","2013-12-11T09:02","2014-01-03","","N","001","001","John Smith","1965-12-03",48,"YEARS","M","WHITE","HISPANIC OR LATINO","BA","TRT2/TRT1","BA","TRT2/TRT1","USA","2013-12-11",-7
"STUDY-01","DM","STUDY-01-2","2","2013-12-18T09:05","2013-12-18T09:05","2013-12-18T09:05","2013-12-18T09:05","2013-12-11T09:11","2013-12-23","","N","001","001","John Smith","1983-03-14",30,"YEARS","M","ASIAN","NOT HISPANIC OR LATINO","AB","TRT1/TRT2","AB","TRT1/TRT2","USA","2013-12-11",-7
"STUDY-01","DM","STUDY-01-3","3","2013-12-18T09:10","2013-12-28T09:10","2013-12-18T09:10","2013-12-28T09:10","2013-12-11T09:30","2014-01-03","","N","001","001","John Smith","1959-03-26",54,"YEARS","M","WHITE","HISPANIC OR LATINO","AB","TRT1/TRT2","AB","TRT1/TRT2","USA","2013-12-11",-7
"STUDY-01","DM","STUDY-01-4","4","2013-12-18T09:15","2013-12-28T09:15","2013-12-18T09:15","2013-12-28T09:15","2013-12-11T10:14","2014-01-13","","N","001","001","John Smith","1964-03-31",49,"YEARS","F","WHITE","NOT HISPANIC OR LATINO","BA","TRT2/TRT1","BA","TRT2/TRT1","USA","2013-12-11",-7
"STUDY-01","DM","STUDY-01-5","5","2013-12-18T09:20","2013-12-28T09:20","2013-12-18T09:20","2013-12-28T09:20","2013-12-11T10:15","2014-01-03","","N","001","001","John Smith","1976-03-01",37,"YEARS","M","BLACK OR AFRICAN AMERICAN","NOT HISPANIC OR LATINO","BA","TRT2/TRT1","BA","TRT2/TRT1","USA","2013-12-11",-7
"STUDY-01","DM","STUDY-01-6","6","2013-12-18T09:25","2013-12-28T09:25","2013-12-18T09:25","2013-12-28T09:25","2013-12-11T10:50","2014-01-03","","N","001","001","John Smith","1963-08-18",50,"YEARS","M","WHITE","NOT HISPANIC OR LATINO","AB","TRT1/TRT2","AB","TRT1/TRT2","USA","2013-12-11",-7
"STUDY-01","DM","STUDY-01-7","7","2013-12-18T09:30","2013-12-18T09:30","2013-12-18T09:30","2013-12-18T09:30","2013-12-11T11:40","2014-01-03","","N","001","001","John Smith","1983-01-07",31,"YEARS","M","WHITE","NOT HISPANIC OR LATINO","BA","TRT2/TRT1","BA","TRT2/TRT1","USA","2013-12-11",-7
"STUDY-01","DM","STUDY-01-8","8","2013-12-18T09:35","2013-12-28T09:35","2013-12-18T09:35","2013-12-28T09:35","2013-12-11T12:53","2014-01-03","","N","001","001","John Smith","1961-01-19",53,"YEARS","F","WHITE","NOT HISPANIC OR LATINO","AB","TRT1/TRT2","AB","TRT1/TRT2","USA","2013-12-11",-7
"STUDY-01","DM","STUDY-01-9","9","2013-12-28T09:05","2014-01-07T09:05","2013-12-28T09:05","2014-01-07T09:05","2013-12-11T13:35","2014-01-13","","N","001","001","John Smith","1969-07-04",44,"YEARS","M","WHITE","NOT HISPANIC OR LATINO","AB","TRT1/TRT2","AB","TRT1/TRT2","USA","2013-12-11",-17
"STUDY-01","DM","STUDY-01-10","10","2013-12-28T09:30","2014-01-07T09:30","2013-12-28T09:30","2014-01-07T09:30","2013-12-11T13:41","2014-01-13","","N","001","001","John Smith","1979-10-14",34,"YEARS","M","WHITE","NOT HISPANIC OR LATINO","BA","TRT2/TRT1","BA","TRT2/TRT1","USA","2013-12-11",-17
