"STUDYID","DOMAIN","USUBJID","LBSEQ","LBTESTCD","LBTEST","LBCAT","LBSCAT","LBORRES","LBORRESU","LBORNRLO","LBORNRHI","LBSTRESC","LBSTRESN","LBSTRESU","LBSTNRLO","LBSTNRHI","LBNRIND","LBSTAT","LBREASND","LBNAM","LBSPEC","LBSPCCND","LBBLFL","VISITNUM","VISIT","EPOCH","LBDTC","LBDY"
"STUDY-01","LB","STUDY-01-1",1,"ETHANOL","Ethanol","BREATH ALCOHOL CONCENTRATION","BAC","NEGATIVE","","","NEGATIVE","NEGATIVE",NA,"",NA,NA,"NORMAL","","","LAB2","BREATH","","",1,"Screening Visit","Screening","2013-12-11",-7
"STUDY-01","LB","STUDY-01-1",2,"AMPHET","Amphetamine","URINALYSIS","DRUG SCREEN","NEGATIVE","","NEGATIVE","NEGATIVE","NEGATIVE",NA,"",NA,NA,"NORMAL","","","LAB2","URINE","","",1,"Screening Visit","Screening","2013-12-11T09:16",-7
"STUDY-01","LB","STUDY-01-1",3,"BILIU","Bilirubin Urine","URINALYSIS","","NEGATIVE","","","NEGATIVE","NEGATIVE",NA,"",NA,NA,"NORMAL","","","LAB1","URINE","","",1,"Screening Visit","Screening","2013-12-11T09:16",-7
"STUDY-01","LB","STUDY-01-1",4,"BNZDZPN","Benzodiazepine","URINALYSIS","DRUG SCREEN","NEGATIVE","","NEGATIVE","NEGATIVE","NEGATIVE",NA,"",NA,NA,"NORMAL","","","LAB2","URINE","","",1,"Screening Visit","Screening","2013-12-11T09:16",-7
"STUDY-01","LB","STUDY-01-1",5,"CANNAB","Cannabinoids","URINALYSIS","DRUG SCREEN","NEGATIVE","","NEGATIVE","NEGATIVE","NEGATIVE",NA,"",NA,NA,"NORMAL","","","LAB2","URINE","","",1,"Screening Visit","Screening","2013-12-11T09:16",-7
"STUDY-01","LB","STUDY-01-1",6,"COCAINE","Cocaine","URINALYSIS","DRUG SCREEN","NEGATIVE","","NEGATIVE","NEGATIVE","NEGATIVE",NA,"",NA,NA,"NORMAL","","","LAB2","URINE","","",1,"Screening Visit","Screening","2013-12-11T09:16",-7
"STUDY-01","LB","STUDY-01-1",7,"GLUCU","Glucose Urine","URINALYSIS","","NEGATIVE","mmol/L","","NEGATIVE","NEGATIVE",NA,"mmol/L",NA,NA,"NORMAL","","","LAB1","URINE","","",1,"Screening Visit","Screening","2013-12-11T09:16",-7
"STUDY-01","LB","STUDY-01-1",8,"KETONES","Ketones","URINALYSIS","","NEGATIVE","mmol/L","","NEGATIVE","NEGATIVE",NA,"mmol/L",NA,NA,"NORMAL","","","LAB1","URINE","","",1,"Screening Visit","Screening","2013-12-11T09:16",-7
"STUDY-01","LB","STUDY-01-1",9,"LEUKASE","Leukocyte Esterase","URINALYSIS","","NEGATIVE","","","NEGATIVE","NEGATIVE",NA,"",NA,NA,"NORMAL","","","LAB1","URINE","","",1,"Screening Visit","Screening","2013-12-11T09:16",-7
"STUDY-01","LB","STUDY-01-1",10,"NITRITE","Nitrite","URINALYSIS","","NEGATIVE","","","NEGATIVE","NEGATIVE",NA,"",NA,NA,"NORMAL","","","LAB1","URINE","","",1,"Screening Visit","Screening","2013-12-11T09:16",-7
"STUDY-01","LB","STUDY-01-1",11,"OCCBLD","Occult Blood","URINALYSIS","","NEGATIVE","","","NEGATIVE","NEGATIVE",NA,"",NA,NA,"NORMAL","","","LAB1","URINE","","",1,"Screening Visit","Screening","2013-12-11T09:16",-7
"STUDY-01","LB","STUDY-01-1",12,"OPIATE","Opiate","URINALYSIS","DRUG SCREEN","NEGATIVE","","NEGATIVE","NEGATIVE","NEGATIVE",NA,"",NA,NA,"NORMAL","","","LAB2","URINE","","",1,"Screening Visit","Screening","2013-12-11T09:16",-7
"STUDY-01","LB","STUDY-01-1",13,"OXYCDN","Oxycodone","URINALYSIS","DRUG SCREEN","NEGATIVE","","NEGATIVE","NEGATIVE","NEGATIVE",NA,"",NA,NA,"NORMAL","","","LAB2","URINE","","",1,"Screening Visit","Screening","2013-12-11T09:16",-7
"STUDY-01","LB","STUDY-01-1",14,"PH","pH","URINALYSIS","","7.5","","5.0","8.0","7.5",7.5,"",5,8,"NORMAL","","","LAB1","URINE","","",1,"Screening Visit","Screening","2013-12-11T09:16",-7
"STUDY-01","LB","STUDY-01-1",15,"PROTU","Protein Urine","URINALYSIS","","NEGATIVE","g/L","","<0.3","NEGATIVE",NA,"g/L",NA,0.3,"NORMAL","","","LAB1","URINE","","",1,"Screening Visit","Screening","2013-12-11T09:16",-7
"STUDY-01","LB","STUDY-01-1",16,"SPGRAV","Specific Gravity","URINALYSIS","","1.26","","1.005","1.030","1.26",1.26,"",1.005,1.03,"NORMAL","","","LAB1","URINE","","",1,"Screening Visit","Screening","2013-12-11T09:16",-7
"STUDY-01","LB","STUDY-01-1",17,"UROBIL","Urobilinogen","URINALYSIS","","4","umol/L","3.2","16.0","4",4,"umol/L",3.2,16,"NORMAL","","","LAB1","URINE","","",1,"Screening Visit","Screening","2013-12-11T09:16",-7
"STUDY-01","LB","STUDY-01-1",18,"ALB","Albumin","CHEMISTRY","LIVER FUNCTION","56.25","g/L","35","52","56.25",56.25,"g/L",35,52,"NORMAL","","","LAB1","SERUM","","",1,"Screening Visit","Screening","2013-12-11T10:01",-7
"STUDY-01","LB","STUDY-01-1",19,"ALT","Alanine Aminotransferase","CHEMISTRY","LIVER FUNCTION","17.5","U/L","","<46","17.5",17.5,"U/L",NA,46,"NORMAL","","","LAB1","SERUM","","",1,"Screening Visit","Screening","2013-12-11T10:01",-7
"STUDY-01","LB","STUDY-01-1",20,"AMYLASE","Amylase","CHEMISTRY","LIVER FUNCTION","77.5","U/L","30","110","77.5",77.5,"U/L",30,110,"NORMAL","","","LAB1","SERUM","","",1,"Screening Visit","Screening","2013-12-11T10:01",-7
"STUDY-01","LB","STUDY-01-1",21,"AST","Aspartate Aminotransferase","CHEMISTRY","LIVER FUNCTION","22.5","U/L","","<37","22.5",22.5,"U/L",NA,37,"NORMAL","","","LAB1","SERUM","","",1,"Screening Visit","Screening","2013-12-11T10:01",-7
"STUDY-01","LB","STUDY-01-1",22,"BASO","Basophils","HEMATOLOGY","DIFFERENTIALS","0","10^9/L","0.00","0.20","0",0,"10^9/L",0,0.2,"NORMAL","","","LAB1","PLASMA","","",1,"Screening Visit","Screening","2013-12-11T10:01",-7
"STUDY-01","LB","STUDY-01-1",23,"BILI","Bilirubin","CHEMISTRY","LIVER FUNCTION","8.75","umol/L","","<23","8.75",8.75,"umol/L",NA,23,"NORMAL","","","LAB1","SERUM","","",1,"Screening Visit","Screening","2013-12-11T10:01",-7
"STUDY-01","LB","STUDY-01-1",24,"CA","Calcium","CHEMISTRY","ELECTROLYTES","2.925","mmol/l","2.20","2.65","2.925",2.925,"mmol/l",2.2,2.65,"NORMAL","","","LAB1","SERUM","","",1,"Screening Visit","Screening","2013-12-11T10:01",-7
"STUDY-01","LB","STUDY-01-1",25,"CL","Chloride","CHEMISTRY","ELECTROLYTES","123.75","mmol/L","95","108","123.75",123.75,"mmol/L",95,108,"NORMAL","","","LAB1","SERUM","","",1,"Screening Visit","Screening","2013-12-11T10:01",-7
"STUDY-01","LB","STUDY-01-1",26,"CREAT","Creatinine","CHEMISTRY","RENAL FUNCTION","88.75","umol/L","60","110","88.75",88.75,"umol/L",60,110,"NORMAL","","","LAB1","SERUM","","",1,"Screening Visit","Screening","2013-12-11T10:01",-7
"STUDY-01","LB","STUDY-01-1",27,"EOS","Eosinophils","HEMATOLOGY","DIFFERENTIALS","0.075","10^9/L","0.00","0.40","0.075",0.075,"10^9/L",0,0.4,"NORMAL","","","LAB1","PLASMA","","",1,"Screening Visit","Screening","2013-12-11T10:01",-7
"STUDY-01","LB","STUDY-01-1",28,"GLUC","Glucose","CHEMISTRY","","5.75","mmol/L","3.6","7.0","5.75",5.75,"mmol/L",3.6,7,"NORMAL","","","LAB1","SERUM","","",1,"Screening Visit","Screening","2013-12-11T10:01",-7
"STUDY-01","LB","STUDY-01-1",29,"HBSAG","Hepatitis B Virus Surface Antigen","CHEMISTRY","SEROLOGY","NEGATIVE","","","NEGATIVE","NEGATIVE",NA,"",NA,NA,"NORMAL","","","LAB1","SERUM","","Y",1,"Screening Visit","Screening","2013-12-11T10:01",-7
"STUDY-01","LB","STUDY-01-1",30,"HCAB","Hepatitis C Virus Antibody","CHEMISTRY","SEROLOGY","NEGATIVE","","","NEGATIVE","NEGATIVE",NA,"",NA,NA,"NORMAL","","","LAB1","SERUM","","Y",1,"Screening Visit","Screening","2013-12-11T10:01",-7
"STUDY-01","LB","STUDY-01-1",31,"HCT","Hematocrit","HEMATOLOGY","","53.75","%","38","49","53.75",53.75,"%",38,49,"NORMAL","","","LAB1","PLASMA","","",1,"Screening Visit","Screening","2013-12-11T10:01",-7
"STUDY-01","LB","STUDY-01-1",32,"HGB","Hemoglobin","HEMATOLOGY","","176.25","g/L","135","170","176.25",176.25,"g/L",135,170,"NORMAL","","","LAB1","PLASMA","","",1,"Screening Visit","Screening","2013-12-11T10:01",-7
"STUDY-01","LB","STUDY-01-1",33,"HIV12AB","HIV-1/2 Antibody","CHEMISTRY","SEROLOGY","NON-REACTIVE","","","NON-REACTIVE","NON-REACTIVE",NA,"",NA,NA,"NORMAL","","","LAB1","SERUM","","Y",1,"Screening Visit","Screening","2013-12-11T10:01",-7
"STUDY-01","LB","STUDY-01-1",34,"K","Potassium","CHEMISTRY","ELECTROLYTES","5.25","mmol/L","3.3","5.1","5.25",5.25,"mmol/L",3.3,5.1,"NORMAL","","","LAB1","SERUM","","",1,"Screening Visit","Screening","2013-12-11T10:01",-7
"STUDY-01","LB","STUDY-01-1",35,"LYM","Lymphocytes","HEMATOLOGY","DIFFERENTIALS","1.65","10^9/L","1.00","3.20","1.65",1.65,"10^9/L",1,3.2,"NORMAL","","","LAB1","PLASMA","","",1,"Screening Visit","Screening","2013-12-11T10:01",-7
"STUDY-01","LB","STUDY-01-1",36,"MONO","Monocytes","HEMATOLOGY","DIFFERENTIALS","0.4875","10^9/L","0.00","0.80","0.4875",0.4875,"10^9/L",0,0.8,"NORMAL","","","LAB1","PLASMA","","",1,"Screening Visit","Screening","2013-12-11T10:01",-7
"STUDY-01","LB","STUDY-01-1",37,"NEUT","Neutrophils","HEMATOLOGY","DIFFERENTIALS","4.675","10^9/L","1.80","7.00","4.675",4.675,"10^9/L",1.8,7,"NORMAL","","","LAB1","PLASMA","","",1,"Screening Visit","Screening","2013-12-11T10:01",-7
"STUDY-01","LB","STUDY-01-1",38,"PLAT","Platelets","HEMATOLOGY","","393.75","10^9/L","145","400","393.75",393.75,"10^9/L",145,400,"NORMAL","","","LAB1","PLASMA","","",1,"Screening Visit","Screening","2013-12-11T10:01",-7
"STUDY-01","LB","STUDY-01-1",39,"PLATMRPH","Platelet Morphology","HEMATOLOGY","","PLATELETS: PLATELET MORPHOLOGY NORMAL","","","","PLATELETS: PLATELET MORPHOLOGY NORMAL",NA,"",NA,NA,"NA","","","LAB1","PLASMA","","",1,"Screening Visit","Screening","2013-12-11T10:01",-7
"STUDY-01","LB","STUDY-01-1",40,"RBC","Erythrocytes","HEMATOLOGY","","5.7625","10^12/L","4.20","5.70","5.7625",5.7625,"10^12/L",4.2,5.7,"NORMAL","","","LAB1","PLASMA","","",1,"Screening Visit","Screening","2013-12-11T10:01",-7
"STUDY-01","LB","STUDY-01-1",41,"RBCMORPH","Erythrocyte Cell Morphology","HEMATOLOGY","DIFFERENTIALS","RBC'S: RED CELLS APPEAR NORMAL","","","","RBC'S: RED CELLS APPEAR NORMAL",NA,"",NA,NA,"NA","","","LAB1","PLASMA","","",1,"Screening Visit","Screening","2013-12-11T10:01",-7
"STUDY-01","LB","STUDY-01-1",42,"SODIUM","Sodium","CHEMISTRY","ELECTROLYTES","170","mmol/L","135","145","170",170,"mmol/L",135,145,"NORMAL","","","LAB1","SERUM","","",1,"Screening Visit","Screening","2013-12-11T10:01",-7
"STUDY-01","LB","STUDY-01-1",43,"UREA","Urea","CHEMISTRY","RENAL FUNCTION","6.375","mmol/L","2.5","8.1","6.375",6.375,"mmol/L",2.5,8.1,"NORMAL","","","LAB1","SERUM","","",1,"Screening Visit","Screening","2013-12-11T10:01",-7
"STUDY-01","LB","STUDY-01-1",44,"WBC","Leukocytes","HEMATOLOGY","","6.875","10^9/L","4.0","11.0","6.875",6.875,"10^9/L",4,11,"NORMAL","","","LAB1","PLASMA","","",1,"Screening Visit","Screening","2013-12-11T10:01",-7
"STUDY-01","LB","STUDY-01-1",45,"WBCMORPH","Leukocyte Cell Morphology","HEMATOLOGY","","WBC'S: WBC MORPHOLOGY NORMAL","","","","WBC'S: WBC MORPHOLOGY NORMAL",NA,"",NA,NA,"NA","","","LAB1","PLASMA","","",1,"Screening Visit","Screening","2013-12-11T10:01",-7
"STUDY-01","LB","STUDY-01-1",46,"ETHANOL","Ethanol","BREATH ALCOHOL CONCENTRATION","BAC","NEGATIVE","","","NEGATIVE","NEGATIVE",NA,"",NA,NA,"NORMAL","","","LAB2","BREATH","","Y",100,"Treatment Period 1 Day 0","Treatment Period 1","2013-12-17",-1
"STUDY-01","LB","STUDY-01-1",47,"AMPHET","Amphetamine","URINALYSIS","DRUG SCREEN","NEGATIVE","","NEGATIVE","NEGATIVE","NEGATIVE",NA,"",NA,NA,"NORMAL","","","LAB2","URINE","","Y",100,"Treatment Period 1 Day 0","Treatment Period 1","2013-12-17T17:57",-1
"STUDY-01","LB","STUDY-01-1",48,"BILIU","Bilirubin Urine","URINALYSIS","","NEGATIVE","","","NEGATIVE","NEGATIVE",NA,"",NA,NA,"NORMAL","","","LAB1","URINE","","Y",100,"Treatment Period 1 Day 0","Treatment Period 1","2013-12-17T17:57",-1
"STUDY-01","LB","STUDY-01-1",49,"BNZDZPN","Benzodiazepine","URINALYSIS","DRUG SCREEN","NEGATIVE","","NEGATIVE","NEGATIVE","NEGATIVE",NA,"",NA,NA,"NORMAL","","","LAB2","URINE","","Y",100,"Treatment Period 1 Day 0","Treatment Period 1","2013-12-17T17:57",-1
"STUDY-01","LB","STUDY-01-1",50,"CANNAB","Cannabinoids","URINALYSIS","DRUG SCREEN","NEGATIVE","","NEGATIVE","NEGATIVE","NEGATIVE",NA,"",NA,NA,"NORMAL","","","LAB2","URINE","","Y",100,"Treatment Period 1 Day 0","Treatment Period 1","2013-12-17T17:57",-1
"STUDY-01","LB","STUDY-01-1",51,"COCAINE","Cocaine","URINALYSIS","DRUG SCREEN","NEGATIVE","","NEGATIVE","NEGATIVE","NEGATIVE",NA,"",NA,NA,"NORMAL","","","LAB2","URINE","","Y",100,"Treatment Period 1 Day 0","Treatment Period 1","2013-12-17T17:57",-1
"STUDY-01","LB","STUDY-01-1",52,"GLUCU","Glucose Urine","URINALYSIS","","NEGATIVE","mmol/L","","NEGATIVE","NEGATIVE",NA,"mmol/L",NA,NA,"NORMAL","","","LAB1","URINE","","Y",100,"Treatment Period 1 Day 0","Treatment Period 1","2013-12-17T17:57",-1
"STUDY-01","LB","STUDY-01-1",53,"KETONES","Ketones","URINALYSIS","","NEGATIVE","mmol/L","","NEGATIVE","NEGATIVE",NA,"mmol/L",NA,NA,"NORMAL","","","LAB1","URINE","","Y",100,"Treatment Period 1 Day 0","Treatment Period 1","2013-12-17T17:57",-1
"STUDY-01","LB","STUDY-01-1",54,"LEUKASE","Leukocyte Esterase","URINALYSIS","","NEGATIVE","","","NEGATIVE","NEGATIVE",NA,"",NA,NA,"NORMAL","","","LAB1","URINE","","Y",100,"Treatment Period 1 Day 0","Treatment Period 1","2013-12-17T17:57",-1
"STUDY-01","LB","STUDY-01-1",55,"NITRITE","Nitrite","URINALYSIS","","NEGATIVE","","","NEGATIVE","NEGATIVE",NA,"",NA,NA,"NORMAL","","","LAB1","URINE","","Y",100,"Treatment Period 1 Day 0","Treatment Period 1","2013-12-17T17:57",-1
"STUDY-01","LB","STUDY-01-1",56,"OCCBLD","Occult Blood","URINALYSIS","","NEGATIVE","","","NEGATIVE","NEGATIVE",NA,"",NA,NA,"NORMAL","","","LAB1","URINE","","Y",100,"Treatment Period 1 Day 0","Treatment Period 1","2013-12-17T17:57",-1
"STUDY-01","LB","STUDY-01-1",57,"OPIATE","Opiate","URINALYSIS","DRUG SCREEN","NEGATIVE","","NEGATIVE","NEGATIVE","NEGATIVE",NA,"",NA,NA,"NORMAL","","","LAB2","URINE","","Y",100,"Treatment Period 1 Day 0","Treatment Period 1","2013-12-17T17:57",-1
"STUDY-01","LB","STUDY-01-1",58,"OXYCDN","Oxycodone","URINALYSIS","DRUG SCREEN","NEGATIVE","","NEGATIVE","NEGATIVE","NEGATIVE",NA,"",NA,NA,"NORMAL","","","LAB2","URINE","","Y",100,"Treatment Period 1 Day 0","Treatment Period 1","2013-12-17T17:57",-1
"STUDY-01","LB","STUDY-01-1",59,"PH","pH","URINALYSIS","","8.75","","5.0","8.0","8.75",8.75,"",5,8,"NORMAL","","","LAB1","URINE","","Y",100,"Treatment Period 1 Day 0","Treatment Period 1","2013-12-17T17:57",-1
"STUDY-01","LB","STUDY-01-1",60,"PROTU","Protein Urine","URINALYSIS","","NEGATIVE","g/L","","<0.3","NEGATIVE",NA,"g/L",NA,0.3,"NORMAL","","","LAB1","URINE","","Y",100,"Treatment Period 1 Day 0","Treatment Period 1","2013-12-17T17:57",-1
"STUDY-01","LB","STUDY-01-1",61,"SPGRAV","Specific Gravity","URINALYSIS","","1.28125","","1.005","1.030","1.28125",1.28125,"",1.005,1.03,"NORMAL","","","LAB1","URINE","","Y",100,"Treatment Period 1 Day 0","Treatment Period 1","2013-12-17T17:57",-1
"STUDY-01","LB","STUDY-01-1",62,"UROBIL","Urobilinogen","URINALYSIS","","4","umol/L","3.2","16.0","4",4,"umol/L",3.2,16,"NORMAL","","","LAB1","URINE","","Y",100,"Treatment Period 1 Day 0","Treatment Period 1","2013-12-17T17:57",-1
"STUDY-01","LB","STUDY-01-1",63,"ALB","Albumin","CHEMISTRY","LIVER FUNCTION","53.75","g/L","35","52","53.75",53.75,"g/L",35,52,"NORMAL","","","LAB1","SERUM","","Y",100,"Treatment Period 1 Day 0","Treatment Period 1","2013-12-17T18:42",-1
"STUDY-01","LB","STUDY-01-1",64,"ALT","Alanine Aminotransferase","CHEMISTRY","LIVER FUNCTION","16.25","U/L","","<46","16.25",16.25,"U/L",NA,46,"NORMAL","","","LAB1","SERUM","","Y",100,"Treatment Period 1 Day 0","Treatment Period 1","2013-12-17T18:42",-1
"STUDY-01","LB","STUDY-01-1",65,"AMYLASE","Amylase","CHEMISTRY","LIVER FUNCTION","97.5","U/L","30","110","97.5",97.5,"U/L",30,110,"NORMAL","","","LAB1","SERUM","","Y",100,"Treatment Period 1 Day 0","Treatment Period 1","2013-12-17T18:42",-1
"STUDY-01","LB","STUDY-01-1",66,"AST","Aspartate Aminotransferase","CHEMISTRY","LIVER FUNCTION","21.25","U/L","","<37","21.25",21.25,"U/L",NA,37,"NORMAL","","","LAB1","SERUM","","Y",100,"Treatment Period 1 Day 0","Treatment Period 1","2013-12-17T18:42",-1
"STUDY-01","LB","STUDY-01-1",67,"BASO","Basophils","HEMATOLOGY","DIFFERENTIALS","0","10^9/L","0.00","0.20","0",0,"10^9/L",0,0.2,"NORMAL","","","LAB1","PLASMA","","Y",100,"Treatment Period 1 Day 0","Treatment Period 1","2013-12-17T18:42",-1
"STUDY-01","LB","STUDY-01-1",68,"BILI","Bilirubin","CHEMISTRY","LIVER FUNCTION","5","umol/L","","<23","5",5,"umol/L",NA,23,"NORMAL","","","LAB1","SERUM","","Y",100,"Treatment Period 1 Day 0","Treatment Period 1","2013-12-17T18:42",-1
"STUDY-01","LB","STUDY-01-1",69,"CA","Calcium","CHEMISTRY","ELECTROLYTES","2.9625","mmol/l","2.20","2.65","2.9625",2.9625,"mmol/l",2.2,2.65,"NORMAL","","","LAB1","SERUM","","Y",100,"Treatment Period 1 Day 0","Treatment Period 1","2013-12-17T18:42",-1
"STUDY-01","LB","STUDY-01-1",70,"CL","Chloride","CHEMISTRY","ELECTROLYTES","123.75","mmol/L","95","108","123.75",123.75,"mmol/L",95,108,"NORMAL","","","LAB1","SERUM","","Y",100,"Treatment Period 1 Day 0","Treatment Period 1","2013-12-17T18:42",-1
"STUDY-01","LB","STUDY-01-1",71,"CREAT","Creatinine","CHEMISTRY","RENAL FUNCTION","100","umol/L","60","110","100",100,"umol/L",60,110,"NORMAL","","","LAB1","SERUM","","Y",100,"Treatment Period 1 Day 0","Treatment Period 1","2013-12-17T18:42",-1
"STUDY-01","LB","STUDY-01-1",72,"EOS","Eosinophils","HEMATOLOGY","DIFFERENTIALS","0.1625","10^9/L","0.00","0.40","0.1625",0.1625,"10^9/L",0,0.4,"NORMAL","","","LAB1","PLASMA","","Y",100,"Treatment Period 1 Day 0","Treatment Period 1","2013-12-17T18:42",-1
"STUDY-01","LB","STUDY-01-1",73,"GLUC","Glucose","CHEMISTRY","","6.75","mmol/L","3.6","7.0","6.75",6.75,"mmol/L",3.6,7,"NORMAL","","","LAB1","SERUM","","Y",100,"Treatment Period 1 Day 0","Treatment Period 1","2013-12-17T18:42",-1
"STUDY-01","LB","STUDY-01-1",74,"HCT","Hematocrit","HEMATOLOGY","","51.25","%","38","49","51.25",51.25,"%",38,49,"NORMAL","","","LAB1","PLASMA","","Y",100,"Treatment Period 1 Day 0","Treatment Period 1","2013-12-17T18:42",-1
"STUDY-01","LB","STUDY-01-1",75,"HGB","Hemoglobin","HEMATOLOGY","","168.75","g/L","135","170","168.75",168.75,"g/L",135,170,"NORMAL","","","LAB1","PLASMA","","Y",100,"Treatment Period 1 Day 0","Treatment Period 1","2013-12-17T18:42",-1
"STUDY-01","LB","STUDY-01-1",76,"K","Potassium","CHEMISTRY","ELECTROLYTES","5","mmol/L","3.3","5.1","5",5,"mmol/L",3.3,5.1,"NORMAL","","","LAB1","SERUM","","Y",100,"Treatment Period 1 Day 0","Treatment Period 1","2013-12-17T18:42",-1
"STUDY-01","LB","STUDY-01-1",77,"LYM","Lymphocytes","HEMATOLOGY","DIFFERENTIALS","2.5625","10^9/L","1.00","3.20","2.5625",2.5625,"10^9/L",1,3.2,"NORMAL","","","LAB1","PLASMA","","Y",100,"Treatment Period 1 Day 0","Treatment Period 1","2013-12-17T18:42",-1
"STUDY-01","LB","STUDY-01-1",78,"MONO","Monocytes","HEMATOLOGY","DIFFERENTIALS","0.7375","10^9/L","0.00","0.80","0.7375",0.7375,"10^9/L",0,0.8,"NORMAL","","","LAB1","PLASMA","","Y",100,"Treatment Period 1 Day 0","Treatment Period 1","2013-12-17T18:42",-1
"STUDY-01","LB","STUDY-01-1",79,"NEUT","Neutrophils","HEMATOLOGY","DIFFERENTIALS","4.7875","10^9/L","1.80","7.00","4.7875",4.7875,"10^9/L",1.8,7,"NORMAL","","","LAB1","PLASMA","","Y",100,"Treatment Period 1 Day 0","Treatment Period 1","2013-12-17T18:42",-1
"STUDY-01","LB","STUDY-01-1",80,"PLAT","Platelets","HEMATOLOGY","","367.5","10^9/L","145","400","367.5",367.5,"10^9/L",145,400,"NORMAL","","","LAB1","PLASMA","","Y",100,"Treatment Period 1 Day 0","Treatment Period 1","2013-12-17T18:42",-1
"STUDY-01","LB","STUDY-01-1",81,"PLATMRPH","Platelet Morphology","HEMATOLOGY","","PLATELETS: PLATELET MORPHOLOGY NORMAL","","","","PLATELETS: PLATELET MORPHOLOGY NORMAL",NA,"",NA,NA,"NA","","","LAB1","PLASMA","","Y",100,"Treatment Period 1 Day 0","Treatment Period 1","2013-12-17T18:42",-1
"STUDY-01","LB","STUDY-01-1",82,"RBC","Erythrocytes","HEMATOLOGY","","5.4625","10^12/L","4.20","5.70","5.4625",5.4625,"10^12/L",4.2,5.7,"NORMAL","","","LAB1","PLASMA","","Y",100,"Treatment Period 1 Day 0","Treatment Period 1","2013-12-17T18:42",-1
"STUDY-01","LB","STUDY-01-1",83,"RBCMORPH","Erythrocyte Cell Morphology","HEMATOLOGY","DIFFERENTIALS","RBC'S: RED CELLS APPEAR NORMAL","","","","RBC'S: RED CELLS APPEAR NORMAL",NA,"",NA,NA,"NA","","","LAB1","PLASMA","","Y",100,"Treatment Period 1 Day 0","Treatment Period 1","2013-12-17T18:42",-1
"STUDY-01","LB","STUDY-01-1",84,"SODIUM","Sodium","CHEMISTRY","ELECTROLYTES","168.75","mmol/L","135","145","168.75",168.75,"mmol/L",135,145,"NORMAL","","","LAB1","SERUM","","Y",100,"Treatment Period 1 Day 0","Treatment Period 1","2013-12-17T18:42",-1
"STUDY-01","LB","STUDY-01-1",85,"UREA","Urea","CHEMISTRY","RENAL FUNCTION","9.375","mmol/L","2.5","8.1","9.375",9.375,"mmol/L",2.5,8.1,"NORMAL","","","LAB1","SERUM","","Y",100,"Treatment Period 1 Day 0","Treatment Period 1","2013-12-17T18:42",-1
"STUDY-01","LB","STUDY-01-1",86,"WBC","Leukocytes","HEMATOLOGY","","8.25","10^9/L","4.0","11.0","8.25",8.25,"10^9/L",4,11,"NORMAL","","","LAB1","PLASMA","","Y",100,"Treatment Period 1 Day 0","Treatment Period 1","2013-12-17T18:42",-1
"STUDY-01","LB","STUDY-01-1",87,"WBCMORPH","Leukocyte Cell Morphology","HEMATOLOGY","","WBC'S: WBC MORPHOLOGY NORMAL","","","","WBC'S: WBC MORPHOLOGY NORMAL",NA,"",NA,NA,"NA","","","LAB1","PLASMA","","Y",100,"Treatment Period 1 Day 0","Treatment Period 1","2013-12-17T18:42",-1
"STUDY-01","LB","STUDY-01-1",88,"ALB","Albumin","CHEMISTRY","LIVER FUNCTION","55","g/L","35","52","55",55,"g/L",35,52,"NORMAL","","","LAB1","SERUM","","",140,"Treatment Period 1 Day 4","Treatment Period 1","2013-12-21T09:00",4
"STUDY-01","LB","STUDY-01-1",89,"ALT","Alanine Aminotransferase","CHEMISTRY","LIVER FUNCTION","16.25","U/L","","<46","16.25",16.25,"U/L",NA,46,"NORMAL","","","LAB1","SERUM","","",140,"Treatment Period 1 Day 4","Treatment Period 1","2013-12-21T09:00",4
"STUDY-01","LB","STUDY-01-1",90,"AMYLASE","Amylase","CHEMISTRY","LIVER FUNCTION","97.5","U/L","30","110","97.5",97.5,"U/L",30,110,"NORMAL","","","LAB1","SERUM","","",140,"Treatment Period 1 Day 4","Treatment Period 1","2013-12-21T09:00",4
"STUDY-01","LB","STUDY-01-1",91,"AST","Aspartate Aminotransferase","CHEMISTRY","LIVER FUNCTION","17.5","U/L","","<37","17.5",17.5,"U/L",NA,37,"NORMAL","","","LAB1","SERUM","","",140,"Treatment Period 1 Day 4","Treatment Period 1","2013-12-21T09:00",4
"STUDY-01","LB","STUDY-01-1",92,"BASO","Basophils","HEMATOLOGY","DIFFERENTIALS","0","10^9/L","0.00","0.20","0",0,"10^9/L",0,0.2,"NORMAL","","","LAB1","PLASMA","","",140,"Treatment Period 1 Day 4","Treatment Period 1","2013-12-21T09:00",4
"STUDY-01","LB","STUDY-01-1",93,"BILI","Bilirubin","CHEMISTRY","LIVER FUNCTION","5","umol/L","","<23","5",5,"umol/L",NA,23,"NORMAL","","","LAB1","SERUM","","",140,"Treatment Period 1 Day 4","Treatment Period 1","2013-12-21T09:00",4
"STUDY-01","LB","STUDY-01-1",94,"CA","Calcium","CHEMISTRY","ELECTROLYTES","2.9","mmol/l","2.20","2.65","2.9",2.9,"mmol/l",2.2,2.65,"NORMAL","","","LAB1","SERUM","","",140,"Treatment Period 1 Day 4","Treatment Period 1","2013-12-21T09:00",4
"STUDY-01","LB","STUDY-01-1",95,"CL","Chloride","CHEMISTRY","ELECTROLYTES","126.25","mmol/L","95","108","126.25",126.25,"mmol/L",95,108,"NORMAL","","","LAB1","SERUM","","",140,"Treatment Period 1 Day 4","Treatment Period 1","2013-12-21T09:00",4
"STUDY-01","LB","STUDY-01-1",96,"CREAT","Creatinine","CHEMISTRY","RENAL FUNCTION","86.25","umol/L","60","110","86.25",86.25,"umol/L",60,110,"NORMAL","","","LAB1","SERUM","","",140,"Treatment Period 1 Day 4","Treatment Period 1","2013-12-21T09:00",4
"STUDY-01","LB","STUDY-01-1",97,"EOS","Eosinophils","HEMATOLOGY","DIFFERENTIALS","0.075","10^9/L","0.00","0.40","0.075",0.075,"10^9/L",0,0.4,"NORMAL","","","LAB1","PLASMA","","",140,"Treatment Period 1 Day 4","Treatment Period 1","2013-12-21T09:00",4
"STUDY-01","LB","STUDY-01-1",98,"GLUC","Glucose","CHEMISTRY","","6.375","mmol/L","3.6","7.0","6.375",6.375,"mmol/L",3.6,7,"NORMAL","","","LAB1","SERUM","","",140,"Treatment Period 1 Day 4","Treatment Period 1","2013-12-21T09:00",4
"STUDY-01","LB","STUDY-01-1",99,"HCT","Hematocrit","HEMATOLOGY","","53.75","%","38","49","53.75",53.75,"%",38,49,"NORMAL","","","LAB1","PLASMA","","",140,"Treatment Period 1 Day 4","Treatment Period 1","2013-12-21T09:00",4
"STUDY-01","LB","STUDY-01-1",100,"HGB","Hemoglobin","HEMATOLOGY","","177.5","g/L","135","170","177.5",177.5,"g/L",135,170,"NORMAL","","","LAB1","PLASMA","","",140,"Treatment Period 1 Day 4","Treatment Period 1","2013-12-21T09:00",4
"STUDY-01","LB","STUDY-01-1",101,"K","Potassium","CHEMISTRY","ELECTROLYTES","5.875","mmol/L","3.3","5.1","5.875",5.875,"mmol/L",3.3,5.1,"NORMAL","","","LAB1","SERUM","","",140,"Treatment Period 1 Day 4","Treatment Period 1","2013-12-21T09:00",4
"STUDY-01","LB","STUDY-01-1",102,"LYM","Lymphocytes","HEMATOLOGY","DIFFERENTIALS","1.825","10^9/L","1.00","3.20","1.825",1.825,"10^9/L",1,3.2,"NORMAL","","","LAB1","PLASMA","","",140,"Treatment Period 1 Day 4","Treatment Period 1","2013-12-21T09:00",4
"STUDY-01","LB","STUDY-01-1",103,"MONO","Monocytes","HEMATOLOGY","DIFFERENTIALS","0.425","10^9/L","0.00","0.80","0.425",0.425,"10^9/L",0,0.8,"NORMAL","","","LAB1","PLASMA","","",140,"Treatment Period 1 Day 4","Treatment Period 1","2013-12-21T09:00",4
"STUDY-01","LB","STUDY-01-1",104,"NEUT","Neutrophils","HEMATOLOGY","DIFFERENTIALS","4.6875","10^9/L","1.80","7.00","4.6875",4.6875,"10^9/L",1.8,7,"NORMAL","","","LAB1","PLASMA","","",140,"Treatment Period 1 Day 4","Treatment Period 1","2013-12-21T09:00",4
"STUDY-01","LB","STUDY-01-1",105,"PLAT","Platelets","HEMATOLOGY","","362.5","10^9/L","145","400","362.5",362.5,"10^9/L",145,400,"NORMAL","","","LAB1","PLASMA","","",140,"Treatment Period 1 Day 4","Treatment Period 1","2013-12-21T09:00",4
"STUDY-01","LB","STUDY-01-1",106,"PLATMRPH","Platelet Morphology","HEMATOLOGY","","PLATELETS: PLATELET MORPHOLOGY NORMAL","","","","PLATELETS: PLATELET MORPHOLOGY NORMAL",NA,"",NA,NA,"NA","","","LAB1","PLASMA","","",140,"Treatment Period 1 Day 4","Treatment Period 1","2013-12-21T09:00",4
"STUDY-01","LB","STUDY-01-1",107,"RBC","Erythrocytes","HEMATOLOGY","","5.8625","10^12/L","4.20","5.70","5.8625",5.8625,"10^12/L",4.2,5.7,"NORMAL","","","LAB1","PLASMA","","",140,"Treatment Period 1 Day 4","Treatment Period 1","2013-12-21T09:00",4
"STUDY-01","LB","STUDY-01-1",108,"RBCMORPH","Erythrocyte Cell Morphology","HEMATOLOGY","DIFFERENTIALS","RBC'S: RED CELLS APPEAR NORMAL","","","","RBC'S: RED CELLS APPEAR NORMAL",NA,"",NA,NA,"NA","","","LAB1","PLASMA","","",140,"Treatment Period 1 Day 4","Treatment Period 1","2013-12-21T09:00",4
"STUDY-01","LB","STUDY-01-1",109,"SODIUM","Sodium","CHEMISTRY","ELECTROLYTES","172.5","mmol/L","135","145","172.5",172.5,"mmol/L",135,145,"NORMAL","","","LAB1","SERUM","","",140,"Treatment Period 1 Day 4","Treatment Period 1","2013-12-21T09:00",4
"STUDY-01","LB","STUDY-01-1",110,"UREA","Urea","CHEMISTRY","RENAL FUNCTION","6.25","mmol/L","2.5","8.1","6.25",6.25,"mmol/L",2.5,8.1,"NORMAL","","","LAB1","SERUM","","",140,"Treatment Period 1 Day 4","Treatment Period 1","2013-12-21T09:00",4
"STUDY-01","LB","STUDY-01-1",111,"WBC","Leukocytes","HEMATOLOGY","","7","10^9/L","4.0","11.0","7",7,"10^9/L",4,11,"NORMAL","","","LAB1","PLASMA","","",140,"Treatment Period 1 Day 4","Treatment Period 1","2013-12-21T09:00",4
"STUDY-01","LB","STUDY-01-1",112,"WBCMORPH","Leukocyte Cell Morphology","HEMATOLOGY","","WBC'S: WBC MORPHOLOGY NORMAL","","","","WBC'S: WBC MORPHOLOGY NORMAL",NA,"",NA,NA,"NA","","","LAB1","PLASMA","","",140,"Treatment Period 1 Day 4","Treatment Period 1","2013-12-21T09:00",4
"STUDY-01","LB","STUDY-01-1",113,"BILIU","Bilirubin Urine","URINALYSIS","","NEGATIVE","","","NEGATIVE","NEGATIVE",NA,"",NA,NA,"NORMAL","","","LAB1","URINE","","",140,"Treatment Period 1 Day 4","Treatment Period 1","2013-12-21T09:26",4
"STUDY-01","LB","STUDY-01-1",114,"GLUCU","Glucose Urine","URINALYSIS","","NEGATIVE","mmol/L","","NEGATIVE","NEGATIVE",NA,"mmol/L",NA,NA,"NORMAL","","","LAB1","URINE","","",140,"Treatment Period 1 Day 4","Treatment Period 1","2013-12-21T09:26",4
"STUDY-01","LB","STUDY-01-1",115,"KETONES","Ketones","URINALYSIS","","NEGATIVE","mmol/L","","NEGATIVE","NEGATIVE",NA,"mmol/L",NA,NA,"NORMAL","","","LAB1","URINE","","",140,"Treatment Period 1 Day 4","Treatment Period 1","2013-12-21T09:26",4
"STUDY-01","LB","STUDY-01-1",116,"LEUKASE","Leukocyte Esterase","URINALYSIS","","NEGATIVE","","","NEGATIVE","NEGATIVE",NA,"",NA,NA,"NORMAL","","","LAB1","URINE","","",140,"Treatment Period 1 Day 4","Treatment Period 1","2013-12-21T09:26",4
"STUDY-01","LB","STUDY-01-1",117,"NITRITE","Nitrite","URINALYSIS","","NEGATIVE","","","NEGATIVE","NEGATIVE",NA,"",NA,NA,"NORMAL","","","LAB1","URINE","","",140,"Treatment Period 1 Day 4","Treatment Period 1","2013-12-21T09:26",4
"STUDY-01","LB","STUDY-01-1",118,"OCCBLD","Occult Blood","URINALYSIS","","NEGATIVE","","","NEGATIVE","NEGATIVE",NA,"",NA,NA,"NORMAL","","","LAB1","URINE","","",140,"Treatment Period 1 Day 4","Treatment Period 1","2013-12-21T09:26",4
"STUDY-01","LB","STUDY-01-1",119,"PH","pH","URINALYSIS","","8.125","","5.0","8.0","8.125",8.125,"",5,8,"NORMAL","","","LAB1","URINE","","",140,"Treatment Period 1 Day 4","Treatment Period 1","2013-12-21T09:26",4
"STUDY-01","LB","STUDY-01-1",120,"PROTU","Protein Urine","URINALYSIS","","NEGATIVE","g/L","","<0.3","NEGATIVE",NA,"g/L",NA,0.3,"NORMAL","","","LAB1","URINE","","",140,"Treatment Period 1 Day 4","Treatment Period 1","2013-12-21T09:26",4
"STUDY-01","LB","STUDY-01-1",121,"SPGRAV","Specific Gravity","URINALYSIS","","1.2575","","1.005","1.030","1.2575",1.2575,"",1.005,1.03,"NORMAL","","","LAB1","URINE","","",140,"Treatment Period 1 Day 4","Treatment Period 1","2013-12-21T09:26",4
"STUDY-01","LB","STUDY-01-1",122,"UROBIL","Urobilinogen","URINALYSIS","","4","umol/L","3.2","16.0","4",4,"umol/L",3.2,16,"NORMAL","","","LAB1","URINE","","",140,"Treatment Period 1 Day 4","Treatment Period 1","2013-12-21T09:26",4
"STUDY-01","LB","STUDY-01-1",123,"ETHANOL","Ethanol","BREATH ALCOHOL CONCENTRATION","BAC","NEGATIVE","","","NEGATIVE","NEGATIVE",NA,"",NA,NA,"NORMAL","","","LAB2","BREATH","","Y",200,"Treatment Period 2 Day 0","Treatment Period 2","2013-12-27",10
"STUDY-01","LB","STUDY-01-1",124,"AMPHET","Amphetamine","URINALYSIS","DRUG SCREEN","NEGATIVE","","NEGATIVE","NEGATIVE","NEGATIVE",NA,"",NA,NA,"NORMAL","","","LAB2","URINE","","Y",200,"Treatment Period 2 Day 0","Treatment Period 2","2013-12-27T19:03",10
"STUDY-01","LB","STUDY-01-1",125,"BILIU","Bilirubin Urine","URINALYSIS","","NEGATIVE","","","NEGATIVE","NEGATIVE",NA,"",NA,NA,"NORMAL","","","LAB1","URINE","","Y",200,"Treatment Period 2 Day 0","Treatment Period 2","2013-12-27T19:03",10
"STUDY-01","LB","STUDY-01-1",126,"BNZDZPN","Benzodiazepine","URINALYSIS","DRUG SCREEN","NEGATIVE","","NEGATIVE","NEGATIVE","NEGATIVE",NA,"",NA,NA,"NORMAL","","","LAB2","URINE","","Y",200,"Treatment Period 2 Day 0","Treatment Period 2","2013-12-27T19:03",10
"STUDY-01","LB","STUDY-01-1",127,"CANNAB","Cannabinoids","URINALYSIS","DRUG SCREEN","NEGATIVE","","NEGATIVE","NEGATIVE","NEGATIVE",NA,"",NA,NA,"NORMAL","","","LAB2","URINE","","Y",200,"Treatment Period 2 Day 0","Treatment Period 2","2013-12-27T19:03",10
"STUDY-01","LB","STUDY-01-1",128,"COCAINE","Cocaine","URINALYSIS","DRUG SCREEN","NEGATIVE","","NEGATIVE","NEGATIVE","NEGATIVE",NA,"",NA,NA,"NORMAL","","","LAB2","URINE","","Y",200,"Treatment Period 2 Day 0","Treatment Period 2","2013-12-27T19:03",10
"STUDY-01","LB","STUDY-01-1",129,"GLUCU","Glucose Urine","URINALYSIS","","NEGATIVE","mmol/L","","NEGATIVE","NEGATIVE",NA,"mmol/L",NA,NA,"NORMAL","","","LAB1","URINE","","Y",200,"Treatment Period 2 Day 0","Treatment Period 2","2013-12-27T19:03",10
"STUDY-01","LB","STUDY-01-1",130,"KETONES","Ketones","URINALYSIS","","NEGATIVE","mmol/L","","NEGATIVE","NEGATIVE",NA,"mmol/L",NA,NA,"NORMAL","","","LAB1","URINE","","Y",200,"Treatment Period 2 Day 0","Treatment Period 2","2013-12-27T19:03",10
"STUDY-01","LB","STUDY-01-1",131,"LEUKASE","Leukocyte Esterase","URINALYSIS","","NEGATIVE","","","NEGATIVE","NEGATIVE",NA,"",NA,NA,"NORMAL","","","LAB1","URINE","","Y",200,"Treatment Period 2 Day 0","Treatment Period 2","2013-12-27T19:03",10
"STUDY-01","LB","STUDY-01-1",132,"NITRITE","Nitrite","URINALYSIS","","NEGATIVE","","","NEGATIVE","NEGATIVE",NA,"",NA,NA,"NORMAL","","","LAB1","URINE","","Y",200,"Treatment Period 2 Day 0","Treatment Period 2","2013-12-27T19:03",10
"STUDY-01","LB","STUDY-01-1",133,"OCCBLD","Occult Blood","URINALYSIS","","NEGATIVE","","","NEGATIVE","NEGATIVE",NA,"",NA,NA,"NORMAL","","","LAB1","URINE","","Y",200,"Treatment Period 2 Day 0","Treatment Period 2","2013-12-27T19:03",10
"STUDY-01","LB","STUDY-01-1",134,"OPIATE","Opiate","URINALYSIS","DRUG SCREEN","NEGATIVE","","NEGATIVE","NEGATIVE","NEGATIVE",NA,"",NA,NA,"NORMAL","","","LAB2","URINE","","Y",200,"Treatment Period 2 Day 0","Treatment Period 2","2013-12-27T19:03",10
"STUDY-01","LB","STUDY-01-1",135,"OXYCDN","Oxycodone","URINALYSIS","DRUG SCREEN","NEGATIVE","","NEGATIVE","NEGATIVE","NEGATIVE",NA,"",NA,NA,"NORMAL","","","LAB2","URINE","","Y",200,"Treatment Period 2 Day 0","Treatment Period 2","2013-12-27T19:03",10
"STUDY-01","LB","STUDY-01-1",136,"PH","pH","URINALYSIS","","6.875","","5.0","8.0","6.875",6.875,"",5,8,"NORMAL","","","LAB1","URINE","","Y",200,"Treatment Period 2 Day 0","Treatment Period 2","2013-12-27T19:03",10
"STUDY-01","LB","STUDY-01-1",137,"PROTU","Protein Urine","URINALYSIS","","NEGATIVE","g/L","","<0.3","NEGATIVE",NA,"g/L",NA,0.3,"NORMAL","","","LAB1","URINE","","Y",200,"Treatment Period 2 Day 0","Treatment Period 2","2013-12-27T19:03",10
"STUDY-01","LB","STUDY-01-1",138,"SPGRAV","Specific Gravity","URINALYSIS","","1.28125","","1.005","1.030","1.28125",1.28125,"",1.005,1.03,"NORMAL","","","LAB1","URINE","","Y",200,"Treatment Period 2 Day 0","Treatment Period 2","2013-12-27T19:03",10
"STUDY-01","LB","STUDY-01-1",139,"UROBIL","Urobilinogen","URINALYSIS","","4","umol/L","3.2","16.0","4",4,"umol/L",3.2,16,"NORMAL","","","LAB1","URINE","","Y",200,"Treatment Period 2 Day 0","Treatment Period 2","2013-12-27T19:03",10
"STUDY-01","LB","STUDY-01-1",140,"ALB","Albumin","CHEMISTRY","LIVER FUNCTION","56.25","g/L","35","52","56.25",56.25,"g/L",35,52,"NORMAL","","","LAB1","SERUM","","Y",200,"Treatment Period 2 Day 0","Treatment Period 2","2013-12-27T19:08",10
"STUDY-01","LB","STUDY-01-1",141,"ALT","Alanine Aminotransferase","CHEMISTRY","LIVER FUNCTION","18.75","U/L","","<46","18.75",18.75,"U/L",NA,46,"NORMAL","","","LAB1","SERUM","","Y",200,"Treatment Period 2 Day 0","Treatment Period 2","2013-12-27T19:08",10
"STUDY-01","LB","STUDY-01-1",142,"AMYLASE","Amylase","CHEMISTRY","LIVER FUNCTION","70","U/L","30","110","70",70,"U/L",30,110,"NORMAL","","","LAB1","SERUM","","Y",200,"Treatment Period 2 Day 0","Treatment Period 2","2013-12-27T19:08",10
"STUDY-01","LB","STUDY-01-1",143,"AST","Aspartate Aminotransferase","CHEMISTRY","LIVER FUNCTION","23.75","U/L","","<37","23.75",23.75,"U/L",NA,37,"NORMAL","","","LAB1","SERUM","","Y",200,"Treatment Period 2 Day 0","Treatment Period 2","2013-12-27T19:08",10
"STUDY-01","LB","STUDY-01-1",144,"BASO","Basophils","HEMATOLOGY","DIFFERENTIALS","0","10^9/L","0.00","0.20","0",0,"10^9/L",0,0.2,"NORMAL","","","LAB1","PLASMA","","Y",200,"Treatment Period 2 Day 0","Treatment Period 2","2013-12-27T19:08",10
"STUDY-01","LB","STUDY-01-1",145,"BILI","Bilirubin","CHEMISTRY","LIVER FUNCTION","6.25","umol/L","","<23","6.25",6.25,"umol/L",NA,23,"NORMAL","","","LAB1","SERUM","","Y",200,"Treatment Period 2 Day 0","Treatment Period 2","2013-12-27T19:08",10
"STUDY-01","LB","STUDY-01-1",146,"CA","Calcium","CHEMISTRY","ELECTROLYTES","2.8875","mmol/l","2.20","2.65","2.8875",2.8875,"mmol/l",2.2,2.65,"NORMAL","","","LAB1","SERUM","","Y",200,"Treatment Period 2 Day 0","Treatment Period 2","2013-12-27T19:08",10
"STUDY-01","LB","STUDY-01-1",147,"CL","Chloride","CHEMISTRY","ELECTROLYTES","126.25","mmol/L","95","108","126.25",126.25,"mmol/L",95,108,"NORMAL","","","LAB1","SERUM","","Y",200,"Treatment Period 2 Day 0","Treatment Period 2","2013-12-27T19:08",10
"STUDY-01","LB","STUDY-01-1",148,"CREAT","Creatinine","CHEMISTRY","RENAL FUNCTION","88.75","umol/L","60","110","88.75",88.75,"umol/L",60,110,"NORMAL","","","LAB1","SERUM","","Y",200,"Treatment Period 2 Day 0","Treatment Period 2","2013-12-27T19:08",10
"STUDY-01","LB","STUDY-01-1",149,"EOS","Eosinophils","HEMATOLOGY","DIFFERENTIALS","0.0875","10^9/L","0.00","0.40","0.0875",0.0875,"10^9/L",0,0.4,"NORMAL","","","LAB1","PLASMA","","Y",200,"Treatment Period 2 Day 0","Treatment Period 2","2013-12-27T19:08",10
"STUDY-01","LB","STUDY-01-1",150,"GLUC","Glucose","CHEMISTRY","","5.5","mmol/L","3.6","7.0","5.5",5.5,"mmol/L",3.6,7,"NORMAL","","","LAB1","SERUM","","Y",200,"Treatment Period 2 Day 0","Treatment Period 2","2013-12-27T19:08",10
"STUDY-01","LB","STUDY-01-1",151,"HCT","Hematocrit","HEMATOLOGY","","50","%","38","49","50",50,"%",38,49,"NORMAL","","","LAB1","PLASMA","","Y",200,"Treatment Period 2 Day 0","Treatment Period 2","2013-12-27T19:08",10
"STUDY-01","LB","STUDY-01-1",152,"HGB","Hemoglobin","HEMATOLOGY","","165","g/L","135","170","165",165,"g/L",135,170,"LOW","","","LAB1","PLASMA","","Y",200,"Treatment Period 2 Day 0","Treatment Period 2","2013-12-27T19:08",10
"STUDY-01","LB","STUDY-01-1",153,"K","Potassium","CHEMISTRY","ELECTROLYTES","4.75","mmol/L","3.3","5.1","4.75",4.75,"mmol/L",3.3,5.1,"NORMAL","","","LAB1","SERUM","","Y",200,"Treatment Period 2 Day 0","Treatment Period 2","2013-12-27T19:08",10
"STUDY-01","LB","STUDY-01-1",154,"LYM","Lymphocytes","HEMATOLOGY","DIFFERENTIALS","2.225","10^9/L","1.00","3.20","2.225",2.225,"10^9/L",1,3.2,"NORMAL","","","LAB1","PLASMA","","Y",200,"Treatment Period 2 Day 0","Treatment Period 2","2013-12-27T19:08",10
"STUDY-01","LB","STUDY-01-1",155,"MONO","Monocytes","HEMATOLOGY","DIFFERENTIALS","0.625","10^9/L","0.00","0.80","0.625",0.625,"10^9/L",0,0.8,"NORMAL","","","LAB1","PLASMA","","Y",200,"Treatment Period 2 Day 0","Treatment Period 2","2013-12-27T19:08",10
"STUDY-01","LB","STUDY-01-1",156,"NEUT","Neutrophils","HEMATOLOGY","DIFFERENTIALS","5.95","10^9/L","1.80","7.00","5.95",5.95,"10^9/L",1.8,7,"NORMAL","","","LAB1","PLASMA","","Y",200,"Treatment Period 2 Day 0","Treatment Period 2","2013-12-27T19:08",10
"STUDY-01","LB","STUDY-01-1",157,"PLAT","Platelets","HEMATOLOGY","","423.75","10^9/L","145","400","423.75",423.75,"10^9/L",145,400,"NORMAL","","","LAB1","PLASMA","","Y",200,"Treatment Period 2 Day 0","Treatment Period 2","2013-12-27T19:08",10
"STUDY-01","LB","STUDY-01-1",158,"PLATMRPH","Platelet Morphology","HEMATOLOGY","","PLATELETS: PLATELET MORPHOLOGY NORMAL","","","","PLATELETS: PLATELET MORPHOLOGY NORMAL",NA,"",NA,NA,"NA","","","LAB1","PLASMA","","Y",200,"Treatment Period 2 Day 0","Treatment Period 2","2013-12-27T19:08",10
"STUDY-01","LB","STUDY-01-1",159,"RBC","Erythrocytes","HEMATOLOGY","","5.3375","10^12/L","4.20","5.70","5.3375",5.3375,"10^12/L",4.2,5.7,"NORMAL","","","LAB1","PLASMA","","Y",200,"Treatment Period 2 Day 0","Treatment Period 2","2013-12-27T19:08",10
"STUDY-01","LB","STUDY-01-1",160,"RBCMORPH","Erythrocyte Cell Morphology","HEMATOLOGY","DIFFERENTIALS","RBC'S: RED CELLS APPEAR NORMAL","","","","RBC'S: RED CELLS APPEAR NORMAL",NA,"",NA,NA,"NA","","","LAB1","PLASMA","","Y",200,"Treatment Period 2 Day 0","Treatment Period 2","2013-12-27T19:08",10
"STUDY-01","LB","STUDY-01-1",161,"SODIUM","Sodium","CHEMISTRY","ELECTROLYTES","172.5","mmol/L","135","145","172.5",172.5,"mmol/L",135,145,"NORMAL","","","LAB1","SERUM","","Y",200,"Treatment Period 2 Day 0","Treatment Period 2","2013-12-27T19:08",10
"STUDY-01","LB","STUDY-01-1",162,"UREA","Urea","CHEMISTRY","RENAL FUNCTION","9.875","mmol/L","2.5","8.1","9.875",9.875,"mmol/L",2.5,8.1,"NORMAL","","","LAB1","SERUM","","Y",200,"Treatment Period 2 Day 0","Treatment Period 2","2013-12-27T19:08",10
"STUDY-01","LB","STUDY-01-1",163,"WBC","Leukocytes","HEMATOLOGY","","8.875","10^9/L","4.0","11.0","8.875",8.875,"10^9/L",4,11,"NORMAL","","","LAB1","PLASMA","","Y",200,"Treatment Period 2 Day 0","Treatment Period 2","2013-12-27T19:08",10
"STUDY-01","LB","STUDY-01-1",164,"WBCMORPH","Leukocyte Cell Morphology","HEMATOLOGY","","WBC'S: WBC MORPHOLOGY NORMAL","","","","WBC'S: WBC MORPHOLOGY NORMAL",NA,"",NA,NA,"NA","","","LAB1","PLASMA","","Y",200,"Treatment Period 2 Day 0","Treatment Period 2","2013-12-27T19:08",10
"STUDY-01","LB","STUDY-01-1",165,"BILIU","Bilirubin Urine","URINALYSIS","","NEGATIVE","","","NEGATIVE","NEGATIVE",NA,"",NA,NA,"NORMAL","","","LAB1","URINE","","",240,"Treatment Period 2 Day 4","Treatment Period 2","2013-12-31T08:02",14
"STUDY-01","LB","STUDY-01-1",166,"GLUCU","Glucose Urine","URINALYSIS","","NEGATIVE","mmol/L","","NEGATIVE","NEGATIVE",NA,"mmol/L",NA,NA,"NORMAL","","","LAB1","URINE","","",240,"Treatment Period 2 Day 4","Treatment Period 2","2013-12-31T08:02",14
"STUDY-01","LB","STUDY-01-1",167,"KETONES","Ketones","URINALYSIS","","NEGATIVE","mmol/L","","NEGATIVE","NEGATIVE",NA,"mmol/L",NA,NA,"NORMAL","","","LAB1","URINE","","",240,"Treatment Period 2 Day 4","Treatment Period 2","2013-12-31T08:02",14
"STUDY-01","LB","STUDY-01-1",168,"LEUKASE","Leukocyte Esterase","URINALYSIS","","NEGATIVE","","","NEGATIVE","NEGATIVE",NA,"",NA,NA,"NORMAL","","","LAB1","URINE","","",240,"Treatment Period 2 Day 4","Treatment Period 2","2013-12-31T08:02",14
"STUDY-01","LB","STUDY-01-1",169,"NITRITE","Nitrite","URINALYSIS","","NEGATIVE","","","NEGATIVE","NEGATIVE",NA,"",NA,NA,"NORMAL","","","LAB1","URINE","","",240,"Treatment Period 2 Day 4","Treatment Period 2","2013-12-31T08:02",14
"STUDY-01","LB","STUDY-01-1",170,"OCCBLD","Occult Blood","URINALYSIS","","NEGATIVE","","","NEGATIVE","NEGATIVE",NA,"",NA,NA,"NORMAL","","","LAB1","URINE","","",240,"Treatment Period 2 Day 4","Treatment Period 2","2013-12-31T08:02",14
"STUDY-01","LB","STUDY-01-1",171,"PH","pH","URINALYSIS","","6.875","","5.0","8.0","6.875",6.875,"",5,8,"NORMAL","","","LAB1","URINE","","",240,"Treatment Period 2 Day 4","Treatment Period 2","2013-12-31T08:02",14
"STUDY-01","LB","STUDY-01-1",172,"PROTU","Protein Urine","URINALYSIS","","NEGATIVE","g/L","","<0.3","NEGATIVE",NA,"g/L",NA,0.3,"NORMAL","","","LAB1","URINE","","",240,"Treatment Period 2 Day 4","Treatment Period 2","2013-12-31T08:02",14
"STUDY-01","LB","STUDY-01-1",173,"SPGRAV","Specific Gravity","URINALYSIS","","1.27375","","1.005","1.030","1.27375",1.27375,"",1.005,1.03,"NORMAL","","","LAB1","URINE","","",240,"Treatment Period 2 Day 4","Treatment Period 2","2013-12-31T08:02",14
"STUDY-01","LB","STUDY-01-1",174,"UROBIL","Urobilinogen","URINALYSIS","","4","umol/L","3.2","16.0","4",4,"umol/L",3.2,16,"NORMAL","","","LAB1","URINE","","",240,"Treatment Period 2 Day 4","Treatment Period 2","2013-12-31T08:02",14
"STUDY-01","LB","STUDY-01-1",175,"ALB","Albumin","CHEMISTRY","LIVER FUNCTION","55","g/L","35","52","55",55,"g/L",35,52,"NORMAL","","","LAB1","SERUM","","",240,"Treatment Period 2 Day 4","Treatment Period 2","2013-12-31T09:00",14
"STUDY-01","LB","STUDY-01-1",176,"ALT","Alanine Aminotransferase","CHEMISTRY","LIVER FUNCTION","16.25","U/L","","<46","16.25",16.25,"U/L",NA,46,"NORMAL","","","LAB1","SERUM","","",240,"Treatment Period 2 Day 4","Treatment Period 2","2013-12-31T09:00",14
"STUDY-01","LB","STUDY-01-1",177,"AMYLASE","Amylase","CHEMISTRY","LIVER FUNCTION","81.25","U/L","30","110","81.25",81.25,"U/L",30,110,"NORMAL","","","LAB1","SERUM","","",240,"Treatment Period 2 Day 4","Treatment Period 2","2013-12-31T09:00",14
"STUDY-01","LB","STUDY-01-1",178,"AST","Aspartate Aminotransferase","CHEMISTRY","LIVER FUNCTION","17.5","U/L","","<37","17.5",17.5,"U/L",NA,37,"NORMAL","","","LAB1","SERUM","","",240,"Treatment Period 2 Day 4","Treatment Period 2","2013-12-31T09:00",14
"STUDY-01","LB","STUDY-01-1",179,"BASO","Basophils","HEMATOLOGY","DIFFERENTIALS","0","10^9/L","0.00","0.20","0",0,"10^9/L",0,0.2,"NORMAL","","","LAB1","PLASMA","","",240,"Treatment Period 2 Day 4","Treatment Period 2","2013-12-31T09:00",14
"STUDY-01","LB","STUDY-01-1",180,"BILI","Bilirubin","CHEMISTRY","LIVER FUNCTION","7.5","umol/L","","<23","7.5",7.5,"umol/L",NA,23,"NORMAL","","","LAB1","SERUM","","",240,"Treatment Period 2 Day 4","Treatment Period 2","2013-12-31T09:00",14
"STUDY-01","LB","STUDY-01-1",181,"CA","Calcium","CHEMISTRY","ELECTROLYTES","2.975","mmol/l","2.20","2.65","2.975",2.975,"mmol/l",2.2,2.65,"NORMAL","","","LAB1","SERUM","","",240,"Treatment Period 2 Day 4","Treatment Period 2","2013-12-31T09:00",14
"STUDY-01","LB","STUDY-01-1",182,"CL","Chloride","CHEMISTRY","ELECTROLYTES","126.25","mmol/L","95","108","126.25",126.25,"mmol/L",95,108,"NORMAL","","","LAB1","SERUM","","",240,"Treatment Period 2 Day 4","Treatment Period 2","2013-12-31T09:00",14
"STUDY-01","LB","STUDY-01-1",183,"CREAT","Creatinine","CHEMISTRY","RENAL FUNCTION","88.75","umol/L","60","110","88.75",88.75,"umol/L",60,110,"NORMAL","","","LAB1","SERUM","","",240,"Treatment Period 2 Day 4","Treatment Period 2","2013-12-31T09:00",14
"STUDY-01","LB","STUDY-01-1",184,"EOS","Eosinophils","HEMATOLOGY","DIFFERENTIALS","0.1375","10^9/L","0.00","0.40","0.1375",0.1375,"10^9/L",0,0.4,"NORMAL","","","LAB1","PLASMA","","",240,"Treatment Period 2 Day 4","Treatment Period 2","2013-12-31T09:00",14
"STUDY-01","LB","STUDY-01-1",185,"GLUC","Glucose","CHEMISTRY","","6.75","mmol/L","3.6","7.0","6.75",6.75,"mmol/L",3.6,7,"NORMAL","","","LAB1","SERUM","","",240,"Treatment Period 2 Day 4","Treatment Period 2","2013-12-31T09:00",14
"STUDY-01","LB","STUDY-01-1",186,"HCT","Hematocrit","HEMATOLOGY","","53.75","%","38","49","53.75",53.75,"%",38,49,"NORMAL","","","LAB1","PLASMA","","",240,"Treatment Period 2 Day 4","Treatment Period 2","2013-12-31T09:00",14
"STUDY-01","LB","STUDY-01-1",187,"HGB","Hemoglobin","HEMATOLOGY","","178.75","g/L","135","170","178.75",178.75,"g/L",135,170,"NORMAL","","","LAB1","PLASMA","","",240,"Treatment Period 2 Day 4","Treatment Period 2","2013-12-31T09:00",14
"STUDY-01","LB","STUDY-01-1",188,"K","Potassium","CHEMISTRY","ELECTROLYTES","5.75","mmol/L","3.3","5.1","5.75",5.75,"mmol/L",3.3,5.1,"NORMAL","","","LAB1","SERUM","","",240,"Treatment Period 2 Day 4","Treatment Period 2","2013-12-31T09:00",14
"STUDY-01","LB","STUDY-01-1",189,"LYM","Lymphocytes","HEMATOLOGY","DIFFERENTIALS","2.1875","10^9/L","1.00","3.20","2.1875",2.1875,"10^9/L",1,3.2,"NORMAL","","","LAB1","PLASMA","","",240,"Treatment Period 2 Day 4","Treatment Period 2","2013-12-31T09:00",14
"STUDY-01","LB","STUDY-01-1",190,"MONO","Monocytes","HEMATOLOGY","DIFFERENTIALS","0.3375","10^9/L","0.00","0.80","0.3375",0.3375,"10^9/L",0,0.8,"NORMAL","","","LAB1","PLASMA","","",240,"Treatment Period 2 Day 4","Treatment Period 2","2013-12-31T09:00",14
"STUDY-01","LB","STUDY-01-1",191,"NEUT","Neutrophils","HEMATOLOGY","DIFFERENTIALS","3.975","10^9/L","1.80","7.00","3.975",3.975,"10^9/L",1.8,7,"NORMAL","","","LAB1","PLASMA","","",240,"Treatment Period 2 Day 4","Treatment Period 2","2013-12-31T09:00",14
"STUDY-01","LB","STUDY-01-1",192,"PLAT","Platelets","HEMATOLOGY","","433.75","10^9/L","145","400","433.75",433.75,"10^9/L",145,400,"NORMAL","","","LAB1","PLASMA","","",240,"Treatment Period 2 Day 4","Treatment Period 2","2013-12-31T09:00",14
"STUDY-01","LB","STUDY-01-1",193,"PLATMRPH","Platelet Morphology","HEMATOLOGY","","PLATELETS: PLATELET MORPHOLOGY NORMAL","","","","PLATELETS: PLATELET MORPHOLOGY NORMAL",NA,"",NA,NA,"NA","","","LAB1","PLASMA","","",240,"Treatment Period 2 Day 4","Treatment Period 2","2013-12-31T09:00",14
"STUDY-01","LB","STUDY-01-1",194,"RBC","Erythrocytes","HEMATOLOGY","","5.875","10^12/L","4.20","5.70","5.875",5.875,"10^12/L",4.2,5.7,"NORMAL","","","LAB1","PLASMA","","",240,"Treatment Period 2 Day 4","Treatment Period 2","2013-12-31T09:00",14
"STUDY-01","LB","STUDY-01-1",195,"RBCMORPH","Erythrocyte Cell Morphology","HEMATOLOGY","DIFFERENTIALS","RBC'S: RED CELLS APPEAR NORMAL","","","","RBC'S: RED CELLS APPEAR NORMAL",NA,"",NA,NA,"NA","","","LAB1","PLASMA","","",240,"Treatment Period 2 Day 4","Treatment Period 2","2013-12-31T09:00",14
"STUDY-01","LB","STUDY-01-1",196,"SODIUM","Sodium","CHEMISTRY","ELECTROLYTES","171.25","mmol/L","135","145","171.25",171.25,"mmol/L",135,145,"NORMAL","","","LAB1","SERUM","","",240,"Treatment Period 2 Day 4","Treatment Period 2","2013-12-31T09:00",14
"STUDY-01","LB","STUDY-01-1",197,"UREA","Urea","CHEMISTRY","RENAL FUNCTION","5.625","mmol/L","2.5","8.1","5.625",5.625,"mmol/L",2.5,8.1,"NORMAL","","","LAB1","SERUM","","",240,"Treatment Period 2 Day 4","Treatment Period 2","2013-12-31T09:00",14
"STUDY-01","LB","STUDY-01-1",198,"WBC","Leukocytes","HEMATOLOGY","","6.625","10^9/L","4.0","11.0","6.625",6.625,"10^9/L",4,11,"NORMAL","","","LAB1","PLASMA","","",240,"Treatment Period 2 Day 4","Treatment Period 2","2013-12-31T09:00",14
"STUDY-01","LB","STUDY-01-1",199,"WBCMORPH","Leukocyte Cell Morphology","HEMATOLOGY","","WBC'S: WBC MORPHOLOGY NORMAL","","","","WBC'S: WBC MORPHOLOGY NORMAL",NA,"",NA,NA,"NA","","","LAB1","PLASMA","","",240,"Treatment Period 2 Day 4","Treatment Period 2","2013-12-31T09:00",14
"STUDY-01","LB","STUDY-01-1",200,"BILIU","Bilirubin Urine","URINALYSIS","","NEGATIVE","","","NEGATIVE","NEGATIVE",NA,"",NA,NA,"NORMAL","","","LAB1","URINE","","",800,"Follow Up/Early Withdrawal","Follow-up","2014-01-03T09:14",17
"STUDY-01","LB","STUDY-01-1",201,"GLUCU","Glucose Urine","URINALYSIS","","NEGATIVE","mmol/L","","NEGATIVE","NEGATIVE",NA,"mmol/L",NA,NA,"NORMAL","","","LAB1","URINE","","",800,"Follow Up/Early Withdrawal","Follow-up","2014-01-03T09:14",17
"STUDY-01","LB","STUDY-01-1",202,"KETONES","Ketones","URINALYSIS","","NEGATIVE","mmol/L","","NEGATIVE","NEGATIVE",NA,"mmol/L",NA,NA,"NORMAL","","","LAB1","URINE","","",800,"Follow Up/Early Withdrawal","Follow-up","2014-01-03T09:14",17
"STUDY-01","LB","STUDY-01-1",203,"LEUKASE","Leukocyte Esterase","URINALYSIS","","NEGATIVE","","","NEGATIVE","NEGATIVE",NA,"",NA,NA,"NORMAL","","","LAB1","URINE","","",800,"Follow Up/Early Withdrawal","Follow-up","2014-01-03T09:14",17
"STUDY-01","LB","STUDY-01-1",204,"NITRITE","Nitrite","URINALYSIS","","NEGATIVE","","","NEGATIVE","NEGATIVE",NA,"",NA,NA,"NORMAL","","","LAB1","URINE","","",800,"Follow Up/Early Withdrawal","Follow-up","2014-01-03T09:14",17
"STUDY-01","LB","STUDY-01-1",205,"OCCBLD","Occult Blood","URINALYSIS","","NEGATIVE","","","NEGATIVE","NEGATIVE",NA,"",NA,NA,"NORMAL","","","LAB1","URINE","","",800,"Follow Up/Early Withdrawal","Follow-up","2014-01-03T09:14",17
"STUDY-01","LB","STUDY-01-1",206,"PH","pH","URINALYSIS","","8.125","","5.0","8.0","8.125",8.125,"",5,8,"NORMAL","","","LAB1","URINE","","",800,"Follow Up/Early Withdrawal","Follow-up","2014-01-03T09:14",17
"STUDY-01","LB","STUDY-01-1",207,"PROTU","Protein Urine","URINALYSIS","","NEGATIVE","g/L","","<0.3","NEGATIVE",NA,"g/L",NA,0.3,"NORMAL","","","LAB1","URINE","","",800,"Follow Up/Early Withdrawal","Follow-up","2014-01-03T09:14",17
"STUDY-01","LB","STUDY-01-1",208,"SPGRAV","Specific Gravity","URINALYSIS","","1.28375","","1.005","1.030","1.28375",1.28375,"",1.005,1.03,"NORMAL","","","LAB1","URINE","","",800,"Follow Up/Early Withdrawal","Follow-up","2014-01-03T09:14",17
"STUDY-01","LB","STUDY-01-1",209,"UROBIL","Urobilinogen","URINALYSIS","","4","umol/L","3.2","16.0","4",4,"umol/L",3.2,16,"NORMAL","","","LAB1","URINE","","",800,"Follow Up/Early Withdrawal","Follow-up","2014-01-03T09:14",17
"STUDY-01","LB","STUDY-01-1",210,"ALB","Albumin","CHEMISTRY","LIVER FUNCTION","53.75","g/L","35","52","53.75",53.75,"g/L",35,52,"NORMAL","","","LAB1","SERUM","","",800,"Follow Up/Early Withdrawal","Follow-up","2014-01-03T09:21",17
"STUDY-01","LB","STUDY-01-1",211,"ALT","Alanine Aminotransferase","CHEMISTRY","LIVER FUNCTION","17.5","U/L","","<46","17.5",17.5,"U/L",NA,46,"NORMAL","","","LAB1","SERUM","","",800,"Follow Up/Early Withdrawal","Follow-up","2014-01-03T09:21",17
"STUDY-01","LB","STUDY-01-1",212,"AMYLASE","Amylase","CHEMISTRY","LIVER FUNCTION","66.25","U/L","30","110","66.25",66.25,"U/L",30,110,"NORMAL","","","LAB1","SERUM","","",800,"Follow Up/Early Withdrawal","Follow-up","2014-01-03T09:21",17
"STUDY-01","LB","STUDY-01-1",213,"AST","Aspartate Aminotransferase","CHEMISTRY","LIVER FUNCTION","22.5","U/L","","<37","22.5",22.5,"U/L",NA,37,"NORMAL","","","LAB1","SERUM","","",800,"Follow Up/Early Withdrawal","Follow-up","2014-01-03T09:21",17
"STUDY-01","LB","STUDY-01-1",214,"BASO","Basophils","HEMATOLOGY","DIFFERENTIALS","0.075","10^9/L","0.00","0.20","0.075",0.075,"10^9/L",0,0.2,"NORMAL","","","LAB1","PLASMA","","",800,"Follow Up/Early Withdrawal","Follow-up","2014-01-03T09:21",17
"STUDY-01","LB","STUDY-01-1",215,"BILI","Bilirubin","CHEMISTRY","LIVER FUNCTION","8.75","umol/L","","<23","8.75",8.75,"umol/L",NA,23,"NORMAL","","","LAB1","SERUM","","",800,"Follow Up/Early Withdrawal","Follow-up","2014-01-03T09:21",17
"STUDY-01","LB","STUDY-01-1",216,"CA","Calcium","CHEMISTRY","ELECTROLYTES","2.975","mmol/l","2.20","2.65","2.975",2.975,"mmol/l",2.2,2.65,"NORMAL","","","LAB1","SERUM","","",800,"Follow Up/Early Withdrawal","Follow-up","2014-01-03T09:21",17
"STUDY-01","LB","STUDY-01-1",217,"CL","Chloride","CHEMISTRY","ELECTROLYTES","127.5","mmol/L","95","108","127.5",127.5,"mmol/L",95,108,"NORMAL","","","LAB1","SERUM","","",800,"Follow Up/Early Withdrawal","Follow-up","2014-01-03T09:21",17
"STUDY-01","LB","STUDY-01-1",218,"CREAT","Creatinine","CHEMISTRY","RENAL FUNCTION","88.75","umol/L","60","110","88.75",88.75,"umol/L",60,110,"NORMAL","","","LAB1","SERUM","","",800,"Follow Up/Early Withdrawal","Follow-up","2014-01-03T09:21",17
"STUDY-01","LB","STUDY-01-1",219,"EOS","Eosinophils","HEMATOLOGY","DIFFERENTIALS","0.225","10^9/L","0.00","0.40","0.225",0.225,"10^9/L",0,0.4,"NORMAL","","","LAB1","PLASMA","","",800,"Follow Up/Early Withdrawal","Follow-up","2014-01-03T09:21",17
"STUDY-01","LB","STUDY-01-1",220,"GLUC","Glucose","CHEMISTRY","","9.625","mmol/L","3.6","7.0","9.625",9.625,"mmol/L",3.6,7,"HIGH","","","LAB1","SERUM","","",800,"Follow Up/Early Withdrawal","Follow-up","2014-01-03T09:21",17
"STUDY-01","LB","STUDY-01-1",221,"HCT","Hematocrit","HEMATOLOGY","","52.5","%","38","49","52.5",52.5,"%",38,49,"NORMAL","","","LAB1","PLASMA","","",800,"Follow Up/Early Withdrawal","Follow-up","2014-01-03T09:21",17
"STUDY-01","LB","STUDY-01-1",222,"HGB","Hemoglobin","HEMATOLOGY","","171.25","g/L","135","170","171.25",171.25,"g/L",135,170,"NORMAL","","","LAB1","PLASMA","","",800,"Follow Up/Early Withdrawal","Follow-up","2014-01-03T09:21",17
"STUDY-01","LB","STUDY-01-1",223,"K","Potassium","CHEMISTRY","ELECTROLYTES","4.875","mmol/L","3.3","5.1","4.875",4.875,"mmol/L",3.3,5.1,"NORMAL","","","LAB1","SERUM","","",800,"Follow Up/Early Withdrawal","Follow-up","2014-01-03T09:21",17
"STUDY-01","LB","STUDY-01-1",224,"LYM","Lymphocytes","HEMATOLOGY","DIFFERENTIALS","2.0625","10^9/L","1.00","3.20","2.0625",2.0625,"10^9/L",1,3.2,"NORMAL","","","LAB1","PLASMA","","",800,"Follow Up/Early Withdrawal","Follow-up","2014-01-03T09:21",17
"STUDY-01","LB","STUDY-01-1",225,"MONO","Monocytes","HEMATOLOGY","DIFFERENTIALS","0.3","10^9/L","0.00","0.80","0.3",0.3,"10^9/L",0,0.8,"NORMAL","","","LAB1","PLASMA","","",800,"Follow Up/Early Withdrawal","Follow-up","2014-01-03T09:21",17
"STUDY-01","LB","STUDY-01-1",226,"NEUT","Neutrophils","HEMATOLOGY","DIFFERENTIALS","4.725","10^9/L","1.80","7.00","4.725",4.725,"10^9/L",1.8,7,"NORMAL","","","LAB1","PLASMA","","",800,"Follow Up/Early Withdrawal","Follow-up","2014-01-03T09:21",17
"STUDY-01","LB","STUDY-01-1",227,"PLAT","Platelets","HEMATOLOGY","","423.75","10^9/L","145","400","423.75",423.75,"10^9/L",145,400,"NORMAL","","","LAB1","PLASMA","","",800,"Follow Up/Early Withdrawal","Follow-up","2014-01-03T09:21",17
"STUDY-01","LB","STUDY-01-1",228,"PLATMRPH","Platelet Morphology","HEMATOLOGY","","PLATELETS: PLATELET MORPHOLOGY NORMAL","","","","PLATELETS: PLATELET MORPHOLOGY NORMAL",NA,"",NA,NA,"NA","","","LAB1","PLASMA","","",800,"Follow Up/Early Withdrawal","Follow-up","2014-01-03T09:21",17
"STUDY-01","LB","STUDY-01-1",229,"RBC","Erythrocytes","HEMATOLOGY","","5.575","10^12/L","4.20","5.70","5.575",5.575,"10^12/L",4.2,5.7,"NORMAL","","","LAB1","PLASMA","","",800,"Follow Up/Early Withdrawal","Follow-up","2014-01-03T09:21",17
"STUDY-01","LB","STUDY-01-1",230,"RBCMORPH","Erythrocyte Cell Morphology","HEMATOLOGY","DIFFERENTIALS","RBC'S: RED CELLS APPEAR NORMAL","","","","RBC'S: RED CELLS APPEAR NORMAL",NA,"",NA,NA,"NA","","","LAB1","PLASMA","","",800,"Follow Up/Early Withdrawal","Follow-up","2014-01-03T09:21",17
"STUDY-01","LB","STUDY-01-1",231,"SODIUM","Sodium","CHEMISTRY","ELECTROLYTES","172.5","mmol/L","135","145","172.5",172.5,"mmol/L",135,145,"NORMAL","","","LAB1","SERUM","","",800,"Follow Up/Early Withdrawal","Follow-up","2014-01-03T09:21",17
"STUDY-01","LB","STUDY-01-1",232,"UREA","Urea","CHEMISTRY","RENAL FUNCTION","8.5","mmol/L","2.5","8.1","8.5",8.5,"mmol/L",2.5,8.1,"NORMAL","","","LAB1","SERUM","","",800,"Follow Up/Early Withdrawal","Follow-up","2014-01-03T09:21",17
"STUDY-01","LB","STUDY-01-1",233,"WBC","Leukocytes","HEMATOLOGY","","7.375","10^9/L","4.0","11.0","7.375",7.375,"10^9/L",4,11,"NORMAL","","","LAB1","PLASMA","","",800,"Follow Up/Early Withdrawal","Follow-up","2014-01-03T09:21",17
"STUDY-01","LB","STUDY-01-1",234,"WBCMORPH","Leukocyte Cell Morphology","HEMATOLOGY","","WBC'S: WBC MORPHOLOGY NORMAL","","","","WBC'S: WBC MORPHOLOGY NORMAL",NA,"",NA,NA,"NA","","","LAB1","PLASMA","","",800,"Follow Up/Early Withdrawal","Follow-up","2014-01-03T09:21",17
"STUDY-01","LB","STUDY-01-2",1,"ETHANOL","Ethanol","BREATH ALCOHOL CONCENTRATION","BAC","NEGATIVE","","","NEGATIVE","NEGATIVE",NA,"",NA,NA,"NORMAL","","","LAB2","BREATH","","",1,"Screening Visit","Screening","2013-12-11",-7
"STUDY-01","LB","STUDY-01-2",2,"AMPHET","Amphetamine","URINALYSIS","DRUG SCREEN","NEGATIVE","","NEGATIVE","NEGATIVE","NEGATIVE",NA,"",NA,NA,"NORMAL","","","LAB2","URINE","","",1,"Screening Visit","Screening","2013-12-11T09:35",-7
"STUDY-01","LB","STUDY-01-2",3,"BILIU","Bilirubin Urine","URINALYSIS","","NEGATIVE","","","NEGATIVE","NEGATIVE",NA,"",NA,NA,"NORMAL","","","LAB1","URINE","","",1,"Screening Visit","Screening","2013-12-11T09:35",-7
"STUDY-01","LB","STUDY-01-2",4,"BNZDZPN","Benzodiazepine","URINALYSIS","DRUG SCREEN","NEGATIVE","","NEGATIVE","NEGATIVE","NEGATIVE",NA,"",NA,NA,"NORMAL","","","LAB2","URINE","","",1,"Screening Visit","Screening","2013-12-11T09:35",-7
"STUDY-01","LB","STUDY-01-2",5,"CANNAB","Cannabinoids","URINALYSIS","DRUG SCREEN","NEGATIVE","","NEGATIVE","NEGATIVE","NEGATIVE",NA,"",NA,NA,"NORMAL","","","LAB2","URINE","","",1,"Screening Visit","Screening","2013-12-11T09:35",-7
"STUDY-01","LB","STUDY-01-2",6,"COCAINE","Cocaine","URINALYSIS","DRUG SCREEN","NEGATIVE","","NEGATIVE","NEGATIVE","NEGATIVE",NA,"",NA,NA,"NORMAL","","","LAB2","URINE","","",1,"Screening Visit","Screening","2013-12-11T09:35",-7
"STUDY-01","LB","STUDY-01-2",7,"GLUCU","Glucose Urine","URINALYSIS","","NEGATIVE","mmol/L","","NEGATIVE","NEGATIVE",NA,"mmol/L",NA,NA,"NORMAL","","","LAB1","URINE","","",1,"Screening Visit","Screening","2013-12-11T09:35",-7
"STUDY-01","LB","STUDY-01-2",8,"KETONES","Ketones","URINALYSIS","","NEGATIVE","mmol/L","","NEGATIVE","NEGATIVE",NA,"mmol/L",NA,NA,"NORMAL","","","LAB1","URINE","","",1,"Screening Visit","Screening","2013-12-11T09:35",-7
"STUDY-01","LB","STUDY-01-2",9,"LEUKASE","Leukocyte Esterase","URINALYSIS","","NEGATIVE","","","NEGATIVE","NEGATIVE",NA,"",NA,NA,"NORMAL","","","LAB1","URINE","","",1,"Screening Visit","Screening","2013-12-11T09:35",-7
"STUDY-01","LB","STUDY-01-2",10,"NITRITE","Nitrite","URINALYSIS","","NEGATIVE","","","NEGATIVE","NEGATIVE",NA,"",NA,NA,"NORMAL","","","LAB1","URINE","","",1,"Screening Visit","Screening","2013-12-11T09:35",-7
"STUDY-01","LB","STUDY-01-2",11,"OCCBLD","Occult Blood","URINALYSIS","","NEGATIVE","","","NEGATIVE","NEGATIVE",NA,"",NA,NA,"NORMAL","","","LAB1","URINE","","",1,"Screening Visit","Screening","2013-12-11T09:35",-7
"STUDY-01","LB","STUDY-01-2",12,"OPIATE","Opiate","URINALYSIS","DRUG SCREEN","NEGATIVE","","NEGATIVE","NEGATIVE","NEGATIVE",NA,"",NA,NA,"NORMAL","","","LAB2","URINE","","",1,"Screening Visit","Screening","2013-12-11T09:35",-7
"STUDY-01","LB","STUDY-01-2",13,"OXYCDN","Oxycodone","URINALYSIS","DRUG SCREEN","NEGATIVE","","NEGATIVE","NEGATIVE","NEGATIVE",NA,"",NA,NA,"NORMAL","","","LAB2","URINE","","",1,"Screening Visit","Screening","2013-12-11T09:35",-7
"STUDY-01","LB","STUDY-01-2",14,"PH","pH","URINALYSIS","","7.5","","5.0","8.0","7.5",7.5,"",5,8,"NORMAL","","","LAB1","URINE","","",1,"Screening Visit","Screening","2013-12-11T09:35",-7
"STUDY-01","LB","STUDY-01-2",15,"PROTU","Protein Urine","URINALYSIS","","NEGATIVE","g/L","","<0.3","NEGATIVE",NA,"g/L",NA,0.3,"NORMAL","","","LAB1","URINE","","",1,"Screening Visit","Screening","2013-12-11T09:35",-7
"STUDY-01","LB","STUDY-01-2",16,"SPGRAV","Specific Gravity","URINALYSIS","","1.28125","","1.005","1.030","1.28125",1.28125,"",1.005,1.03,"NORMAL","","","LAB1","URINE","","",1,"Screening Visit","Screening","2013-12-11T09:35",-7
"STUDY-01","LB","STUDY-01-2",17,"UROBIL","Urobilinogen","URINALYSIS","","4","umol/L","3.2","16.0","4",4,"umol/L",3.2,16,"NORMAL","","","LAB1","URINE","","",1,"Screening Visit","Screening","2013-12-11T09:35",-7
"STUDY-01","LB","STUDY-01-2",18,"ALB","Albumin","CHEMISTRY","LIVER FUNCTION","61.25","g/L","35","52","61.25",61.25,"g/L",35,52,"NORMAL","","","LAB1","SERUM","","",1,"Screening Visit","Screening","2013-12-11T10:19",-7
"STUDY-01","LB","STUDY-01-2",19,"ALT","Alanine Aminotransferase","CHEMISTRY","LIVER FUNCTION","30","U/L","","<46","30",30,"U/L",NA,46,"NORMAL","","","LAB1","SERUM","","",1,"Screening Visit","Screening","2013-12-11T10:19",-7
"STUDY-01","LB","STUDY-01-2",20,"AMYLASE","Amylase","CHEMISTRY","LIVER FUNCTION","107.5","U/L","30","110","107.5",107.5,"U/L",30,110,"NORMAL","","","LAB1","SERUM","","",1,"Screening Visit","Screening","2013-12-11T10:19",-7
"STUDY-01","LB","STUDY-01-2",21,"AST","Aspartate Aminotransferase","CHEMISTRY","LIVER FUNCTION","26.25","U/L","","<37","26.25",26.25,"U/L",NA,37,"NORMAL","","","LAB1","SERUM","","",1,"Screening Visit","Screening","2013-12-11T10:19",-7
"STUDY-01","LB","STUDY-01-2",22,"BASO","Basophils","HEMATOLOGY","DIFFERENTIALS","0.075","10^9/L","0.00","0.20","0.075",0.075,"10^9/L",0,0.2,"NORMAL","","","LAB1","PLASMA","","",1,"Screening Visit","Screening","2013-12-11T10:19",-7
"STUDY-01","LB","STUDY-01-2",23,"BILI","Bilirubin","CHEMISTRY","LIVER FUNCTION","7.5","umol/L","","<23","7.5",7.5,"umol/L",NA,23,"NORMAL","","","LAB1","SERUM","","",1,"Screening Visit","Screening","2013-12-11T10:19",-7
"STUDY-01","LB","STUDY-01-2",24,"CA","Calcium","CHEMISTRY","ELECTROLYTES","3.025","mmol/l","2.20","2.65","3.025",3.025,"mmol/l",2.2,2.65,"NORMAL","","","LAB1","SERUM","","",1,"Screening Visit","Screening","2013-12-11T10:19",-7
"STUDY-01","LB","STUDY-01-2",25,"CL","Chloride","CHEMISTRY","ELECTROLYTES","127.5","mmol/L","95","108","127.5",127.5,"mmol/L",95,108,"NORMAL","","","LAB1","SERUM","","",1,"Screening Visit","Screening","2013-12-11T10:19",-7
"STUDY-01","LB","STUDY-01-2",26,"CREAT","Creatinine","CHEMISTRY","RENAL FUNCTION","97.5","umol/L","60","110","97.5",97.5,"umol/L",60,110,"NORMAL","","","LAB1","SERUM","","",1,"Screening Visit","Screening","2013-12-11T10:19",-7
"STUDY-01","LB","STUDY-01-2",27,"EOS","Eosinophils","HEMATOLOGY","DIFFERENTIALS","0.1375","10^9/L","0.00","0.40","0.1375",0.1375,"10^9/L",0,0.4,"NORMAL","","","LAB1","PLASMA","","",1,"Screening Visit","Screening","2013-12-11T10:19",-7
"STUDY-01","LB","STUDY-01-2",28,"GLUC","Glucose","CHEMISTRY","","5.375","mmol/L","3.6","7.0","5.375",5.375,"mmol/L",3.6,7,"NORMAL","","","LAB1","SERUM","","",1,"Screening Visit","Screening","2013-12-11T10:19",-7
"STUDY-01","LB","STUDY-01-2",29,"HBSAG","Hepatitis B Virus Surface Antigen","CHEMISTRY","SEROLOGY","NEGATIVE","","","NEGATIVE","NEGATIVE",NA,"",NA,NA,"NORMAL","","","LAB1","SERUM","","Y",1,"Screening Visit","Screening","2013-12-11T10:19",-7
"STUDY-01","LB","STUDY-01-2",30,"HCAB","Hepatitis C Virus Antibody","CHEMISTRY","SEROLOGY","NEGATIVE","","","NEGATIVE","NEGATIVE",NA,"",NA,NA,"NORMAL","","","LAB1","SERUM","","Y",1,"Screening Visit","Screening","2013-12-11T10:19",-7
"STUDY-01","LB","STUDY-01-2",31,"HCT","Hematocrit","HEMATOLOGY","","57.5","%","38","49","57.5",57.5,"%",38,49,"NORMAL","","","LAB1","PLASMA","","",1,"Screening Visit","Screening","2013-12-11T10:19",-7
"STUDY-01","LB","STUDY-01-2",32,"HGB","Hemoglobin","HEMATOLOGY","","188.75","g/L","135","170","188.75",188.75,"g/L",135,170,"NORMAL","","","LAB1","PLASMA","","",1,"Screening Visit","Screening","2013-12-11T10:19",-7
"STUDY-01","LB","STUDY-01-2",33,"HIV12AB","HIV-1/2 Antibody","CHEMISTRY","SEROLOGY","NON-REACTIVE","","","NON-REACTIVE","NON-REACTIVE",NA,"",NA,NA,"NORMAL","","","LAB1","SERUM","","Y",1,"Screening Visit","Screening","2013-12-11T10:19",-7
"STUDY-01","LB","STUDY-01-2",34,"K","Potassium","CHEMISTRY","ELECTROLYTES","5.75","mmol/L","3.3","5.1","5.75",5.75,"mmol/L",3.3,5.1,"NORMAL","","","LAB1","SERUM","","",1,"Screening Visit","Screening","2013-12-11T10:19",-7
"STUDY-01","LB","STUDY-01-2",35,"LYM","Lymphocytes","HEMATOLOGY","DIFFERENTIALS","2.0625","10^9/L","1.00","3.20","2.0625",2.0625,"10^9/L",1,3.2,"NORMAL","","","LAB1","PLASMA","","",1,"Screening Visit","Screening","2013-12-11T10:19",-7
"STUDY-01","LB","STUDY-01-2",36,"MONO","Monocytes","HEMATOLOGY","DIFFERENTIALS","0.2125","10^9/L","0.00","0.80","0.2125",0.2125,"10^9/L",0,0.8,"NORMAL","","","LAB1","PLASMA","","",1,"Screening Visit","Screening","2013-12-11T10:19",-7
"STUDY-01","LB","STUDY-01-2",37,"NEUT","Neutrophils","HEMATOLOGY","DIFFERENTIALS","4.6375","10^9/L","1.80","7.00","4.6375",4.6375,"10^9/L",1.8,7,"NORMAL","","","LAB1","PLASMA","","",1,"Screening Visit","Screening","2013-12-11T10:19",-7
"STUDY-01","LB","STUDY-01-2",38,"PLAT","Platelets","HEMATOLOGY","","331.25","10^9/L","145","400","331.25",331.25,"10^9/L",145,400,"NORMAL","","","LAB1","PLASMA","","",1,"Screening Visit","Screening","2013-12-11T10:19",-7
"STUDY-01","LB","STUDY-01-2",39,"PLATMRPH","Platelet Morphology","HEMATOLOGY","","PLATELETS: PLATELET MORPHOLOGY NORMAL","","","","PLATELETS: PLATELET MORPHOLOGY NORMAL",NA,"",NA,NA,"NA","","","LAB1","PLASMA","","",1,"Screening Visit","Screening","2013-12-11T10:19",-7
"STUDY-01","LB","STUDY-01-2",40,"RBC","Erythrocytes","HEMATOLOGY","","6.15","10^12/L","4.20","5.70","6.15",6.15,"10^12/L",4.2,5.7,"NORMAL","","","LAB1","PLASMA","","",1,"Screening Visit","Screening","2013-12-11T10:19",-7
"STUDY-01","LB","STUDY-01-2",41,"RBCMORPH","Erythrocyte Cell Morphology","HEMATOLOGY","DIFFERENTIALS","RBC'S: RED CELLS APPEAR NORMAL","","","","RBC'S: RED CELLS APPEAR NORMAL",NA,"",NA,NA,"NA","","","LAB1","PLASMA","","",1,"Screening Visit","Screening","2013-12-11T10:19",-7
"STUDY-01","LB","STUDY-01-2",42,"SODIUM","Sodium","CHEMISTRY","ELECTROLYTES","176.25","mmol/L","135","145","176.25",176.25,"mmol/L",135,145,"NORMAL","","","LAB1","SERUM","","",1,"Screening Visit","Screening","2013-12-11T10:19",-7
"STUDY-01","LB","STUDY-01-2",43,"UREA","Urea","CHEMISTRY","RENAL FUNCTION","7.625","mmol/L","2.5","8.1","7.625",7.625,"mmol/L",2.5,8.1,"NORMAL","","","LAB1","SERUM","","",1,"Screening Visit","Screening","2013-12-11T10:19",-7
"STUDY-01","LB","STUDY-01-2",44,"WBC","Leukocytes","HEMATOLOGY","","7.125","10^9/L","4.0","11.0","7.125",7.125,"10^9/L",4,11,"NORMAL","","","LAB1","PLASMA","","",1,"Screening Visit","Screening","2013-12-11T10:19",-7
"STUDY-01","LB","STUDY-01-2",45,"WBCMORPH","Leukocyte Cell Morphology","HEMATOLOGY","","WBC'S: WBC MORPHOLOGY NORMAL","","","","WBC'S: WBC MORPHOLOGY NORMAL",NA,"",NA,NA,"NA","","","LAB1","PLASMA","","",1,"Screening Visit","Screening","2013-12-11T10:19",-7
"STUDY-01","LB","STUDY-01-2",46,"ETHANOL","Ethanol","BREATH ALCOHOL CONCENTRATION","BAC","NEGATIVE","","","NEGATIVE","NEGATIVE",NA,"",NA,NA,"NORMAL","","","LAB2","BREATH","","Y",100,"Treatment Period 1 Day 0","Treatment Period 1","2013-12-17",-1
"STUDY-01","LB","STUDY-01-2",47,"AMPHET","Amphetamine","URINALYSIS","DRUG SCREEN","NEGATIVE","","NEGATIVE","NEGATIVE","NEGATIVE",NA,"",NA,NA,"NORMAL","","","LAB2","URINE","","Y",100,"Treatment Period 1 Day 0","Treatment Period 1","2013-12-17T17:28",-1
"STUDY-01","LB","STUDY-01-2",48,"BILIU","Bilirubin Urine","URINALYSIS","","NEGATIVE","","","NEGATIVE","NEGATIVE",NA,"",NA,NA,"NORMAL","","","LAB1","URINE","","Y",100,"Treatment Period 1 Day 0","Treatment Period 1","2013-12-17T17:28",-1
"STUDY-01","LB","STUDY-01-2",49,"BNZDZPN","Benzodiazepine","URINALYSIS","DRUG SCREEN","NEGATIVE","","NEGATIVE","NEGATIVE","NEGATIVE",NA,"",NA,NA,"NORMAL","","","LAB2","URINE","","Y",100,"Treatment Period 1 Day 0","Treatment Period 1","2013-12-17T17:28",-1
"STUDY-01","LB","STUDY-01-2",50,"CANNAB","Cannabinoids","URINALYSIS","DRUG SCREEN","NEGATIVE","","NEGATIVE","NEGATIVE","NEGATIVE",NA,"",NA,NA,"NORMAL","","","LAB2","URINE","","Y",100,"Treatment Period 1 Day 0","Treatment Period 1","2013-12-17T17:28",-1
"STUDY-01","LB","STUDY-01-2",51,"COCAINE","Cocaine","URINALYSIS","DRUG SCREEN","NEGATIVE","","NEGATIVE","NEGATIVE","NEGATIVE",NA,"",NA,NA,"NORMAL","","","LAB2","URINE","","Y",100,"Treatment Period 1 Day 0","Treatment Period 1","2013-12-17T17:28",-1
"STUDY-01","LB","STUDY-01-2",52,"GLUCU","Glucose Urine","URINALYSIS","","NEGATIVE","mmol/L","","NEGATIVE","NEGATIVE",NA,"mmol/L",NA,NA,"NORMAL","","","LAB1","URINE","","Y",100,"Treatment Period 1 Day 0","Treatment Period 1","2013-12-17T17:28",-1
"STUDY-01","LB","STUDY-01-2",53,"KETONES","Ketones","URINALYSIS","","NEGATIVE","mmol/L","","NEGATIVE","NEGATIVE",NA,"mmol/L",NA,NA,"NORMAL","","","LAB1","URINE","","Y",100,"Treatment Period 1 Day 0","Treatment Period 1","2013-12-17T17:28",-1
"STUDY-01","LB","STUDY-01-2",54,"LEUKASE","Leukocyte Esterase","URINALYSIS","","NEGATIVE","","","NEGATIVE","NEGATIVE",NA,"",NA,NA,"NORMAL","","","LAB1","URINE","","Y",100,"Treatment Period 1 Day 0","Treatment Period 1","2013-12-17T17:28",-1
"STUDY-01","LB","STUDY-01-2",55,"NITRITE","Nitrite","URINALYSIS","","NEGATIVE","","","NEGATIVE","NEGATIVE",NA,"",NA,NA,"NORMAL","","","LAB1","URINE","","Y",100,"Treatment Period 1 Day 0","Treatment Period 1","2013-12-17T17:28",-1
"STUDY-01","LB","STUDY-01-2",56,"OCCBLD","Occult Blood","URINALYSIS","","NEGATIVE","","","NEGATIVE","NEGATIVE",NA,"",NA,NA,"NORMAL","","","LAB1","URINE","","Y",100,"Treatment Period 1 Day 0","Treatment Period 1","2013-12-17T17:28",-1
"STUDY-01","LB","STUDY-01-2",57,"OPIATE","Opiate","URINALYSIS","DRUG SCREEN","NEGATIVE","","NEGATIVE","NEGATIVE","NEGATIVE",NA,"",NA,NA,"NORMAL","","","LAB2","URINE","","Y",100,"Treatment Period 1 Day 0","Treatment Period 1","2013-12-17T17:28",-1
"STUDY-01","LB","STUDY-01-2",58,"OXYCDN","Oxycodone","URINALYSIS","DRUG SCREEN","NEGATIVE","","NEGATIVE","NEGATIVE","NEGATIVE",NA,"",NA,NA,"NORMAL","","","LAB2","URINE","","Y",100,"Treatment Period 1 Day 0","Treatment Period 1","2013-12-17T17:28",-1
"STUDY-01","LB","STUDY-01-2",59,"PH","pH","URINALYSIS","","9.375","","5.0","8.0","9.375",9.375,"",5,8,"NORMAL","","","LAB1","URINE","","Y",100,"Treatment Period 1 Day 0","Treatment Period 1","2013-12-17T17:28",-1
"STUDY-01","LB","STUDY-01-2",60,"PROTU","Protein Urine","URINALYSIS","","NEGATIVE","g/L","","<0.3","NEGATIVE",NA,"g/L",NA,0.3,"NORMAL","","","LAB1","URINE","","Y",100,"Treatment Period 1 Day 0","Treatment Period 1","2013-12-17T17:28",-1
"STUDY-01","LB","STUDY-01-2",61,"SPGRAV","Specific Gravity","URINALYSIS","","1.28875","","1.005","1.030","1.28875",1.28875,"",1.005,1.03,"HIGH","","","LAB1","URINE","","Y",100,"Treatment Period 1 Day 0","Treatment Period 1","2013-12-17T17:28",-1
"STUDY-01","LB","STUDY-01-2",62,"UROBIL","Urobilinogen","URINALYSIS","","20","umol/L","3.2","16.0","20",20,"umol/L",3.2,16,"NORMAL","","","LAB1","URINE","","Y",100,"Treatment Period 1 Day 0","Treatment Period 1","2013-12-17T17:28",-1
"STUDY-01","LB","STUDY-01-2",63,"ALB","Albumin","CHEMISTRY","LIVER FUNCTION","57.5","g/L","35","52","57.5",57.5,"g/L",35,52,"NORMAL","","","LAB1","SERUM","","Y",100,"Treatment Period 1 Day 0","Treatment Period 1","2013-12-17T18:17",-1
"STUDY-01","LB","STUDY-01-2",64,"ALT","Alanine Aminotransferase","CHEMISTRY","LIVER FUNCTION","27.5","U/L","","<46","27.5",27.5,"U/L",NA,46,"NORMAL","","","LAB1","SERUM","","Y",100,"Treatment Period 1 Day 0","Treatment Period 1","2013-12-17T18:17",-1
"STUDY-01","LB","STUDY-01-2",65,"AMYLASE","Amylase","CHEMISTRY","LIVER FUNCTION","110","U/L","30","110","110",110,"U/L",30,110,"NORMAL","","","LAB1","SERUM","","Y",100,"Treatment Period 1 Day 0","Treatment Period 1","2013-12-17T18:17",-1
"STUDY-01","LB","STUDY-01-2",66,"AST","Aspartate Aminotransferase","CHEMISTRY","LIVER FUNCTION","25","U/L","","<37","25",25,"U/L",NA,37,"NORMAL","","","LAB1","SERUM","","Y",100,"Treatment Period 1 Day 0","Treatment Period 1","2013-12-17T18:17",-1
"STUDY-01","LB","STUDY-01-2",67,"BASO","Basophils","HEMATOLOGY","DIFFERENTIALS","0.1","10^9/L","0.00","0.20","0.1",0.1,"10^9/L",0,0.2,"NORMAL","","","LAB1","PLASMA","","Y",100,"Treatment Period 1 Day 0","Treatment Period 1","2013-12-17T18:17",-1
"STUDY-01","LB","STUDY-01-2",68,"BILI","Bilirubin","CHEMISTRY","LIVER FUNCTION","3.75","umol/L","","<23","3.75",3.75,"umol/L",NA,23,"NORMAL","","","LAB1","SERUM","","Y",100,"Treatment Period 1 Day 0","Treatment Period 1","2013-12-17T18:17",-1
"STUDY-01","LB","STUDY-01-2",69,"CA","Calcium","CHEMISTRY","ELECTROLYTES","3.175","mmol/l","2.20","2.65","3.175",3.175,"mmol/l",2.2,2.65,"NORMAL","","","LAB1","SERUM","","Y",100,"Treatment Period 1 Day 0","Treatment Period 1","2013-12-17T18:17",-1
"STUDY-01","LB","STUDY-01-2",70,"CL","Chloride","CHEMISTRY","ELECTROLYTES","128.75","mmol/L","95","108","128.75",128.75,"mmol/L",95,108,"NORMAL","","","LAB1","SERUM","","Y",100,"Treatment Period 1 Day 0","Treatment Period 1","2013-12-17T18:17",-1
"STUDY-01","LB","STUDY-01-2",71,"CREAT","Creatinine","CHEMISTRY","RENAL FUNCTION","96.25","umol/L","60","110","96.25",96.25,"umol/L",60,110,"NORMAL","","","LAB1","SERUM","","Y",100,"Treatment Period 1 Day 0","Treatment Period 1","2013-12-17T18:17",-1
"STUDY-01","LB","STUDY-01-2",72,"EOS","Eosinophils","HEMATOLOGY","DIFFERENTIALS","0.2","10^9/L","0.00","0.40","0.2",0.2,"10^9/L",0,0.4,"NORMAL","","","LAB1","PLASMA","","Y",100,"Treatment Period 1 Day 0","Treatment Period 1","2013-12-17T18:17",-1
"STUDY-01","LB","STUDY-01-2",73,"GLUC","Glucose","CHEMISTRY","","5.875","mmol/L","3.6","7.0","5.875",5.875,"mmol/L",3.6,7,"NORMAL","","","LAB1","SERUM","","Y",100,"Treatment Period 1 Day 0","Treatment Period 1","2013-12-17T18:17",-1
"STUDY-01","LB","STUDY-01-2",74,"HCT","Hematocrit","HEMATOLOGY","","56.25","%","38","49","56.25",56.25,"%",38,49,"NORMAL","","","LAB1","PLASMA","","Y",100,"Treatment Period 1 Day 0","Treatment Period 1","2013-12-17T18:17",-1
"STUDY-01","LB","STUDY-01-2",75,"HGB","Hemoglobin","HEMATOLOGY","","186.25","g/L","135","170","186.25",186.25,"g/L",135,170,"NORMAL","","","LAB1","PLASMA","","Y",100,"Treatment Period 1 Day 0","Treatment Period 1","2013-12-17T18:17",-1
"STUDY-01","LB","STUDY-01-2",76,"K","Potassium","CHEMISTRY","ELECTROLYTES","6.375","mmol/L","3.3","5.1","6.375",6.375,"mmol/L",3.3,5.1,"NORMAL","","","LAB1","SERUM","","Y",100,"Treatment Period 1 Day 0","Treatment Period 1","2013-12-17T18:17",-1
"STUDY-01","LB","STUDY-01-2",77,"LYM","Lymphocytes","HEMATOLOGY","DIFFERENTIALS","2.5625","10^9/L","1.00","3.20","2.5625",2.5625,"10^9/L",1,3.2,"NORMAL","","","LAB1","PLASMA","","Y",100,"Treatment Period 1 Day 0","Treatment Period 1","2013-12-17T18:17",-1
"STUDY-01","LB","STUDY-01-2",78,"MONO","Monocytes","HEMATOLOGY","DIFFERENTIALS","0.5125","10^9/L","0.00","0.80","0.5125",0.5125,"10^9/L",0,0.8,"NORMAL","","","LAB1","PLASMA","","Y",100,"Treatment Period 1 Day 0","Treatment Period 1","2013-12-17T18:17",-1
"STUDY-01","LB","STUDY-01-2",79,"NEUT","Neutrophils","HEMATOLOGY","DIFFERENTIALS","6.8625","10^9/L","1.80","7.00","6.8625",6.8625,"10^9/L",1.8,7,"NORMAL","","","LAB1","PLASMA","","Y",100,"Treatment Period 1 Day 0","Treatment Period 1","2013-12-17T18:17",-1
"STUDY-01","LB","STUDY-01-2",80,"PLAT","Platelets","HEMATOLOGY","","350","10^9/L","145","400","350",350,"10^9/L",145,400,"NORMAL","","","LAB1","PLASMA","","Y",100,"Treatment Period 1 Day 0","Treatment Period 1","2013-12-17T18:17",-1
"STUDY-01","LB","STUDY-01-2",81,"PLATMRPH","Platelet Morphology","HEMATOLOGY","","PLATELETS: PLATELET MORPHOLOGY NORMAL","","","","PLATELETS: PLATELET MORPHOLOGY NORMAL",NA,"",NA,NA,"NA","","","LAB1","PLASMA","","Y",100,"Treatment Period 1 Day 0","Treatment Period 1","2013-12-17T18:17",-1
"STUDY-01","LB","STUDY-01-2",82,"RBC","Erythrocytes","HEMATOLOGY","","5.9625","10^12/L","4.20","5.70","5.9625",5.9625,"10^12/L",4.2,5.7,"NORMAL","","","LAB1","PLASMA","","Y",100,"Treatment Period 1 Day 0","Treatment Period 1","2013-12-17T18:17",-1
"STUDY-01","LB","STUDY-01-2",83,"RBCMORPH","Erythrocyte Cell Morphology","HEMATOLOGY","DIFFERENTIALS","RBC'S: RED CELLS APPEAR NORMAL","","","","RBC'S: RED CELLS APPEAR NORMAL",NA,"",NA,NA,"NA","","","LAB1","PLASMA","","Y",100,"Treatment Period 1 Day 0","Treatment Period 1","2013-12-17T18:17",-1
"STUDY-01","LB","STUDY-01-2",84,"SODIUM","Sodium","CHEMISTRY","ELECTROLYTES","176.25","mmol/L","135","145","176.25",176.25,"mmol/L",135,145,"NORMAL","","","LAB1","SERUM","","Y",100,"Treatment Period 1 Day 0","Treatment Period 1","2013-12-17T18:17",-1
"STUDY-01","LB","STUDY-01-2",85,"UREA","Urea","CHEMISTRY","RENAL FUNCTION","8.125","mmol/L","2.5","8.1","8.125",8.125,"mmol/L",2.5,8.1,"NORMAL","","","LAB1","SERUM","","Y",100,"Treatment Period 1 Day 0","Treatment Period 1","2013-12-17T18:17",-1
"STUDY-01","LB","STUDY-01-2",86,"WBC","Leukocytes","HEMATOLOGY","","10.25","10^9/L","4.0","11.0","10.25",10.25,"10^9/L",4,11,"NORMAL","","","LAB1","PLASMA","","Y",100,"Treatment Period 1 Day 0","Treatment Period 1","2013-12-17T18:17",-1
"STUDY-01","LB","STUDY-01-2",87,"WBCMORPH","Leukocyte Cell Morphology","HEMATOLOGY","","WBC'S: WBC MORPHOLOGY NORMAL","","","","WBC'S: WBC MORPHOLOGY NORMAL",NA,"",NA,NA,"NA","","","LAB1","PLASMA","","Y",100,"Treatment Period 1 Day 0","Treatment Period 1","2013-12-17T18:17",-1
"STUDY-01","LB","STUDY-01-2",88,"BILIU","Bilirubin Urine","URINALYSIS","","NEGATIVE","","","NEGATIVE","NEGATIVE",NA,"",NA,NA,"NORMAL","","","LAB1","URINE","","",140,"Treatment Period 1 Day 4","Treatment Period 1","2013-12-21T08:24",4
"STUDY-01","LB","STUDY-01-2",89,"GLUCU","Glucose Urine","URINALYSIS","","NEGATIVE","mmol/L","","NEGATIVE","NEGATIVE",NA,"mmol/L",NA,NA,"NORMAL","","","LAB1","URINE","","",140,"Treatment Period 1 Day 4","Treatment Period 1","2013-12-21T08:24",4
"STUDY-01","LB","STUDY-01-2",90,"KETONES","Ketones","URINALYSIS","","NEGATIVE","mmol/L","","NEGATIVE","NEGATIVE",NA,"mmol/L",NA,NA,"NORMAL","","","LAB1","URINE","","",140,"Treatment Period 1 Day 4","Treatment Period 1","2013-12-21T08:24",4
"STUDY-01","LB","STUDY-01-2",91,"LEUKASE","Leukocyte Esterase","URINALYSIS","","NEGATIVE","","","NEGATIVE","NEGATIVE",NA,"",NA,NA,"NORMAL","","","LAB1","URINE","","",140,"Treatment Period 1 Day 4","Treatment Period 1","2013-12-21T08:24",4
"STUDY-01","LB","STUDY-01-2",92,"NITRITE","Nitrite","URINALYSIS","","NEGATIVE","","","NEGATIVE","NEGATIVE",NA,"",NA,NA,"NORMAL","","","LAB1","URINE","","",140,"Treatment Period 1 Day 4","Treatment Period 1","2013-12-21T08:24",4
"STUDY-01","LB","STUDY-01-2",93,"OCCBLD","Occult Blood","URINALYSIS","","NEGATIVE","","","NEGATIVE","NEGATIVE",NA,"",NA,NA,"NORMAL","","","LAB1","URINE","","",140,"Treatment Period 1 Day 4","Treatment Period 1","2013-12-21T08:24",4
"STUDY-01","LB","STUDY-01-2",94,"PH","pH","URINALYSIS","","9.375","","5.0","8.0","9.375",9.375,"",5,8,"NORMAL","","","LAB1","URINE","","",140,"Treatment Period 1 Day 4","Treatment Period 1","2013-12-21T08:24",4
"STUDY-01","LB","STUDY-01-2",95,"PROTU","Protein Urine","URINALYSIS","","NEGATIVE","g/L","","<0.3","NEGATIVE",NA,"g/L",NA,0.3,"NORMAL","","","LAB1","URINE","","",140,"Treatment Period 1 Day 4","Treatment Period 1","2013-12-21T08:24",4
"STUDY-01","LB","STUDY-01-2",96,"SPGRAV","Specific Gravity","URINALYSIS","","1.28","","1.005","1.030","1.28",1.28,"",1.005,1.03,"NORMAL","","","LAB1","URINE","","",140,"Treatment Period 1 Day 4","Treatment Period 1","2013-12-21T08:24",4
"STUDY-01","LB","STUDY-01-2",97,"UROBIL","Urobilinogen","URINALYSIS","","4","umol/L","3.2","16.0","4",4,"umol/L",3.2,16,"NORMAL","","","LAB1","URINE","","",140,"Treatment Period 1 Day 4","Treatment Period 1","2013-12-21T08:24",4
"STUDY-01","LB","STUDY-01-2",98,"ALB","Albumin","CHEMISTRY","LIVER FUNCTION","57.5","g/L","35","52","57.5",57.5,"g/L",35,52,"NORMAL","","","LAB1","SERUM","","",140,"Treatment Period 1 Day 4","Treatment Period 1","2013-12-21T09:05",4
"STUDY-01","LB","STUDY-01-2",99,"ALT","Alanine Aminotransferase","CHEMISTRY","LIVER FUNCTION","28.75","U/L","","<46","28.75",28.75,"U/L",NA,46,"NORMAL","","","LAB1","SERUM","","",140,"Treatment Period 1 Day 4","Treatment Period 1","2013-12-21T09:05",4
"STUDY-01","LB","STUDY-01-2",100,"AMYLASE","Amylase","CHEMISTRY","LIVER FUNCTION","127.5","U/L","30","110","127.5",127.5,"U/L",30,110,"NORMAL","","","LAB1","SERUM","","",140,"Treatment Period 1 Day 4","Treatment Period 1","2013-12-21T09:05",4
"STUDY-01","LB","STUDY-01-2",101,"AST","Aspartate Aminotransferase","CHEMISTRY","LIVER FUNCTION","22.5","U/L","","<37","22.5",22.5,"U/L",NA,37,"NORMAL","","","LAB1","SERUM","","",140,"Treatment Period 1 Day 4","Treatment Period 1","2013-12-21T09:05",4
"STUDY-01","LB","STUDY-01-2",102,"BASO","Basophils","HEMATOLOGY","DIFFERENTIALS","0.075","10^9/L","0.00","0.20","0.075",0.075,"10^9/L",0,0.2,"NORMAL","","","LAB1","PLASMA","","",140,"Treatment Period 1 Day 4","Treatment Period 1","2013-12-21T09:05",4
"STUDY-01","LB","STUDY-01-2",103,"BILI","Bilirubin","CHEMISTRY","LIVER FUNCTION","8.75","umol/L","","<23","8.75",8.75,"umol/L",NA,23,"NORMAL","","","LAB1","SERUM","","",140,"Treatment Period 1 Day 4","Treatment Period 1","2013-12-21T09:05",4
"STUDY-01","LB","STUDY-01-2",104,"CA","Calcium","CHEMISTRY","ELECTROLYTES","3.0125","mmol/l","2.20","2.65","3.0125",3.0125,"mmol/l",2.2,2.65,"NORMAL","","","LAB1","SERUM","","",140,"Treatment Period 1 Day 4","Treatment Period 1","2013-12-21T09:05",4
"STUDY-01","LB","STUDY-01-2",105,"CL","Chloride","CHEMISTRY","ELECTROLYTES","127.5","mmol/L","95","108","127.5",127.5,"mmol/L",95,108,"NORMAL","","","LAB1","SERUM","","",140,"Treatment Period 1 Day 4","Treatment Period 1","2013-12-21T09:05",4
"STUDY-01","LB","STUDY-01-2",106,"CREAT","Creatinine","CHEMISTRY","RENAL FUNCTION","103.75","umol/L","60","110","103.75",103.75,"umol/L",60,110,"NORMAL","","","LAB1","SERUM","","",140,"Treatment Period 1 Day 4","Treatment Period 1","2013-12-21T09:05",4
"STUDY-01","LB","STUDY-01-2",107,"EOS","Eosinophils","HEMATOLOGY","DIFFERENTIALS","0.15","10^9/L","0.00","0.40","0.15",0.15,"10^9/L",0,0.4,"NORMAL","","","LAB1","PLASMA","","",140,"Treatment Period 1 Day 4","Treatment Period 1","2013-12-21T09:05",4
"STUDY-01","LB","STUDY-01-2",108,"GLUC","Glucose","CHEMISTRY","","6","mmol/L","3.6","7.0","6",6,"mmol/L",3.6,7,"NORMAL","","","LAB1","SERUM","","",140,"Treatment Period 1 Day 4","Treatment Period 1","2013-12-21T09:05",4
"STUDY-01","LB","STUDY-01-2",109,"HCT","Hematocrit","HEMATOLOGY","","57.5","%","38","49","57.5",57.5,"%",38,49,"NORMAL","","","LAB1","PLASMA","","",140,"Treatment Period 1 Day 4","Treatment Period 1","2013-12-21T09:05",4
"STUDY-01","LB","STUDY-01-2",110,"HGB","Hemoglobin","HEMATOLOGY","","187.5","g/L","135","170","187.5",187.5,"g/L",135,170,"NORMAL","","","LAB1","PLASMA","","",140,"Treatment Period 1 Day 4","Treatment Period 1","2013-12-21T09:05",4
"STUDY-01","LB","STUDY-01-2",111,"K","Potassium","CHEMISTRY","ELECTROLYTES","6.125","mmol/L","3.3","5.1","6.125",6.125,"mmol/L",3.3,5.1,"NORMAL","","","LAB1","SERUM","","",140,"Treatment Period 1 Day 4","Treatment Period 1","2013-12-21T09:05",4
"STUDY-01","LB","STUDY-01-2",112,"LYM","Lymphocytes","HEMATOLOGY","DIFFERENTIALS","2.3875","10^9/L","1.00","3.20","2.3875",2.3875,"10^9/L",1,3.2,"NORMAL","","","LAB1","PLASMA","","",140,"Treatment Period 1 Day 4","Treatment Period 1","2013-12-21T09:05",4
"STUDY-01","LB","STUDY-01-2",113,"MONO","Monocytes","HEMATOLOGY","DIFFERENTIALS","0.2875","10^9/L","0.00","0.80","0.2875",0.2875,"10^9/L",0,0.8,"NORMAL","","","LAB1","PLASMA","","",140,"Treatment Period 1 Day 4","Treatment Period 1","2013-12-21T09:05",4
"STUDY-01","LB","STUDY-01-2",114,"NEUT","Neutrophils","HEMATOLOGY","DIFFERENTIALS","4.35","10^9/L","1.80","7.00","4.35",4.35,"10^9/L",1.8,7,"NORMAL","","","LAB1","PLASMA","","",140,"Treatment Period 1 Day 4","Treatment Period 1","2013-12-21T09:05",4
"STUDY-01","LB","STUDY-01-2",115,"PLAT","Platelets","HEMATOLOGY","","362.5","10^9/L","145","400","362.5",362.5,"10^9/L",145,400,"NORMAL","","","LAB1","PLASMA","","",140,"Treatment Period 1 Day 4","Treatment Period 1","2013-12-21T09:05",4
"STUDY-01","LB","STUDY-01-2",116,"PLATMRPH","Platelet Morphology","HEMATOLOGY","","PLATELETS: PLATELET MORPHOLOGY NORMAL","","","","PLATELETS: PLATELET MORPHOLOGY NORMAL",NA,"",NA,NA,"NA","","","LAB1","PLASMA","","",140,"Treatment Period 1 Day 4","Treatment Period 1","2013-12-21T09:05",4
"STUDY-01","LB","STUDY-01-2",117,"RBC","Erythrocytes","HEMATOLOGY","","6.225","10^12/L","4.20","5.70","6.225",6.225,"10^12/L",4.2,5.7,"NORMAL","","","LAB1","PLASMA","","",140,"Treatment Period 1 Day 4","Treatment Period 1","2013-12-21T09:05",4
"STUDY-01","LB","STUDY-01-2",118,"RBCMORPH","Erythrocyte Cell Morphology","HEMATOLOGY","DIFFERENTIALS","RBC'S: RED CELLS APPEAR NORMAL","","","","RBC'S: RED CELLS APPEAR NORMAL",NA,"",NA,NA,"NA","","","LAB1","PLASMA","","",140,"Treatment Period 1 Day 4","Treatment Period 1","2013-12-21T09:05",4
"STUDY-01","LB","STUDY-01-2",119,"SODIUM","Sodium","CHEMISTRY","ELECTROLYTES","176.25","mmol/L","135","145","176.25",176.25,"mmol/L",135,145,"NORMAL","","","LAB1","SERUM","","",140,"Treatment Period 1 Day 4","Treatment Period 1","2013-12-21T09:05",4
"STUDY-01","LB","STUDY-01-2",120,"UREA","Urea","CHEMISTRY","RENAL FUNCTION","7.625","mmol/L","2.5","8.1","7.625",7.625,"mmol/L",2.5,8.1,"NORMAL","","","LAB1","SERUM","","",140,"Treatment Period 1 Day 4","Treatment Period 1","2013-12-21T09:05",4
"STUDY-01","LB","STUDY-01-2",121,"WBC","Leukocytes","HEMATOLOGY","","7.25","10^9/L","4.0","11.0","7.25",7.25,"10^9/L",4,11,"NORMAL","","","LAB1","PLASMA","","",140,"Treatment Period 1 Day 4","Treatment Period 1","2013-12-21T09:05",4
"STUDY-01","LB","STUDY-01-2",122,"WBCMORPH","Leukocyte Cell Morphology","HEMATOLOGY","","WBC'S: WBC MORPHOLOGY NORMAL","","","","WBC'S: WBC MORPHOLOGY NORMAL",NA,"",NA,NA,"NA","","","LAB1","PLASMA","","",140,"Treatment Period 1 Day 4","Treatment Period 1","2013-12-21T09:05",4
"STUDY-01","LB","STUDY-01-2",123,"BILIU","Bilirubin Urine","URINALYSIS","","NEGATIVE","","","NEGATIVE","NEGATIVE",NA,"",NA,NA,"NORMAL","","","LAB1","URINE","","",800,"Follow Up/Early Withdrawal","Follow-up","2013-12-23T09:06",6
"STUDY-01","LB","STUDY-01-2",124,"GLUCU","Glucose Urine","URINALYSIS","","NEGATIVE","mmol/L","","NEGATIVE","NEGATIVE",NA,"mmol/L",NA,NA,"NORMAL","","","LAB1","URINE","","",800,"Follow Up/Early Withdrawal","Follow-up","2013-12-23T09:06",6
"STUDY-01","LB","STUDY-01-2",125,"KETONES","Ketones","URINALYSIS","","NEGATIVE","mmol/L","","NEGATIVE","NEGATIVE",NA,"mmol/L",NA,NA,"NORMAL","","","LAB1","URINE","","",800,"Follow Up/Early Withdrawal","Follow-up","2013-12-23T09:06",6
"STUDY-01","LB","STUDY-01-2",126,"LEUKASE","Leukocyte Esterase","URINALYSIS","","NEGATIVE","","","NEGATIVE","NEGATIVE",NA,"",NA,NA,"NORMAL","","","LAB1","URINE","","",800,"Follow Up/Early Withdrawal","Follow-up","2013-12-23T09:06",6
"STUDY-01","LB","STUDY-01-2",127,"NITRITE","Nitrite","URINALYSIS","","NEGATIVE","","","NEGATIVE","NEGATIVE",NA,"",NA,NA,"NORMAL","","","LAB1","URINE","","",800,"Follow Up/Early Withdrawal","Follow-up","2013-12-23T09:06",6
"STUDY-01","LB","STUDY-01-2",128,"OCCBLD","Occult Blood","URINALYSIS","","NEGATIVE","","","NEGATIVE","NEGATIVE",NA,"",NA,NA,"NORMAL","","","LAB1","URINE","","",800,"Follow Up/Early Withdrawal","Follow-up","2013-12-23T09:06",6
"STUDY-01","LB","STUDY-01-2",129,"PH","pH","URINALYSIS","","7.5","","5.0","8.0","7.5",7.5,"",5,8,"NORMAL","","","LAB1","URINE","","",800,"Follow Up/Early Withdrawal","Follow-up","2013-12-23T09:06",6
"STUDY-01","LB","STUDY-01-2",130,"PROTU","Protein Urine","URINALYSIS","","NEGATIVE","g/L","","<0.3","NEGATIVE",NA,"g/L",NA,0.3,"NORMAL","","","LAB1","URINE","","",800,"Follow Up/Early Withdrawal","Follow-up","2013-12-23T09:06",6
"STUDY-01","LB","STUDY-01-2",131,"SPGRAV","Specific Gravity","URINALYSIS","","1.27875","","1.005","1.030","1.27875",1.27875,"",1.005,1.03,"NORMAL","","","LAB1","URINE","","",800,"Follow Up/Early Withdrawal","Follow-up","2013-12-23T09:06",6
"STUDY-01","LB","STUDY-01-2",132,"UROBIL","Urobilinogen","URINALYSIS","","4","umol/L","3.2","16.0","4",4,"umol/L",3.2,16,"NORMAL","","","LAB1","URINE","","",800,"Follow Up/Early Withdrawal","Follow-up","2013-12-23T09:06",6
"STUDY-01","LB","STUDY-01-2",133,"ALB","Albumin","CHEMISTRY","LIVER FUNCTION","56.25","g/L","35","52","56.25",56.25,"g/L",35,52,"NORMAL","","","LAB1","SERUM","","",800,"Follow Up/Early Withdrawal","Follow-up","2013-12-23T09:36",6
"STUDY-01","LB","STUDY-01-2",134,"ALT","Alanine Aminotransferase","CHEMISTRY","LIVER FUNCTION","30","U/L","","<46","30",30,"U/L",NA,46,"NORMAL","","","LAB1","SERUM","","",800,"Follow Up/Early Withdrawal","Follow-up","2013-12-23T09:36",6
"STUDY-01","LB","STUDY-01-2",135,"AMYLASE","Amylase","CHEMISTRY","LIVER FUNCTION","106.25","U/L","30","110","106.25",106.25,"U/L",30,110,"NORMAL","","","LAB1","SERUM","","",800,"Follow Up/Early Withdrawal","Follow-up","2013-12-23T09:36",6
"STUDY-01","LB","STUDY-01-2",136,"AST","Aspartate Aminotransferase","CHEMISTRY","LIVER FUNCTION","27.5","U/L","","<37","27.5",27.5,"U/L",NA,37,"NORMAL","","","LAB1","SERUM","","",800,"Follow Up/Early Withdrawal","Follow-up","2013-12-23T09:36",6
"STUDY-01","LB","STUDY-01-2",137,"BASO","Basophils","HEMATOLOGY","DIFFERENTIALS","0","10^9/L","0.00","0.20","0",0,"10^9/L",0,0.2,"NORMAL","","","LAB1","PLASMA","","",800,"Follow Up/Early Withdrawal","Follow-up","2013-12-23T09:36",6
"STUDY-01","LB","STUDY-01-2",138,"BILI","Bilirubin","CHEMISTRY","LIVER FUNCTION","8.75","umol/L","","<23","8.75",8.75,"umol/L",NA,23,"NORMAL","","","LAB1","SERUM","","",800,"Follow Up/Early Withdrawal","Follow-up","2013-12-23T09:36",6
"STUDY-01","LB","STUDY-01-2",139,"CA","Calcium","CHEMISTRY","ELECTROLYTES","2.9","mmol/l","2.20","2.65","2.9",2.9,"mmol/l",2.2,2.65,"NORMAL","","","LAB1","SERUM","","",800,"Follow Up/Early Withdrawal","Follow-up","2013-12-23T09:36",6
"STUDY-01","LB","STUDY-01-2",140,"CL","Chloride","CHEMISTRY","ELECTROLYTES","130","mmol/L","95","108","130",130,"mmol/L",95,108,"NORMAL","","","LAB1","SERUM","","",800,"Follow Up/Early Withdrawal","Follow-up","2013-12-23T09:36",6
"STUDY-01","LB","STUDY-01-2",141,"CREAT","Creatinine","CHEMISTRY","RENAL FUNCTION","90","umol/L","60","110","90",90,"umol/L",60,110,"NORMAL","","","LAB1","SERUM","","",800,"Follow Up/Early Withdrawal","Follow-up","2013-12-23T09:36",6
"STUDY-01","LB","STUDY-01-2",142,"EOS","Eosinophils","HEMATOLOGY","DIFFERENTIALS","0.15","10^9/L","0.00","0.40","0.15",0.15,"10^9/L",0,0.4,"NORMAL","","","LAB1","PLASMA","","",800,"Follow Up/Early Withdrawal","Follow-up","2013-12-23T09:36",6
"STUDY-01","LB","STUDY-01-2",143,"GLUC","Glucose","CHEMISTRY","","6.625","mmol/L","3.6","7.0","6.625",6.625,"mmol/L",3.6,7,"NORMAL","","","LAB1","SERUM","","",800,"Follow Up/Early Withdrawal","Follow-up","2013-12-23T09:36",6
"STUDY-01","LB","STUDY-01-2",144,"HCT","Hematocrit","HEMATOLOGY","","55","%","38","49","55",55,"%",38,49,"NORMAL","","","LAB1","PLASMA","","",800,"Follow Up/Early Withdrawal","Follow-up","2013-12-23T09:36",6
"STUDY-01","LB","STUDY-01-2",145,"HGB","Hemoglobin","HEMATOLOGY","","180","g/L","135","170","180",180,"g/L",135,170,"NORMAL","","","LAB1","PLASMA","","",800,"Follow Up/Early Withdrawal","Follow-up","2013-12-23T09:36",6
"STUDY-01","LB","STUDY-01-2",146,"K","Potassium","CHEMISTRY","ELECTROLYTES","5.375","mmol/L","3.3","5.1","5.375",5.375,"mmol/L",3.3,5.1,"NORMAL","","","LAB1","SERUM","","",800,"Follow Up/Early Withdrawal","Follow-up","2013-12-23T09:36",6
"STUDY-01","LB","STUDY-01-2",147,"LYM","Lymphocytes","HEMATOLOGY","DIFFERENTIALS","2.0625","10^9/L","1.00","3.20","2.0625",2.0625,"10^9/L",1,3.2,"NORMAL","","","LAB1","PLASMA","","",800,"Follow Up/Early Withdrawal","Follow-up","2013-12-23T09:36",6
"STUDY-01","LB","STUDY-01-2",148,"MONO","Monocytes","HEMATOLOGY","DIFFERENTIALS","0.3","10^9/L","0.00","0.80","0.3",0.3,"10^9/L",0,0.8,"NORMAL","","","LAB1","PLASMA","","",800,"Follow Up/Early Withdrawal","Follow-up","2013-12-23T09:36",6
"STUDY-01","LB","STUDY-01-2",149,"NEUT","Neutrophils","HEMATOLOGY","DIFFERENTIALS","5.1125","10^9/L","1.80","7.00","5.1125",5.1125,"10^9/L",1.8,7,"NORMAL","","","LAB1","PLASMA","","",800,"Follow Up/Early Withdrawal","Follow-up","2013-12-23T09:36",6
"STUDY-01","LB","STUDY-01-2",150,"PLAT","Platelets","HEMATOLOGY","","348.75","10^9/L","145","400","348.75",348.75,"10^9/L",145,400,"NORMAL","","","LAB1","PLASMA","","",800,"Follow Up/Early Withdrawal","Follow-up","2013-12-23T09:36",6
"STUDY-01","LB","STUDY-01-2",151,"PLATMRPH","Platelet Morphology","HEMATOLOGY","","PLATELETS: PLATELET MORPHOLOGY NORMAL","","","","PLATELETS: PLATELET MORPHOLOGY NORMAL",NA,"",NA,NA,"NA","","","LAB1","PLASMA","","",800,"Follow Up/Early Withdrawal","Follow-up","2013-12-23T09:36",6
"STUDY-01","LB","STUDY-01-2",152,"RBC","Erythrocytes","HEMATOLOGY","","5.875","10^12/L","4.20","5.70","5.875",5.875,"10^12/L",4.2,5.7,"NORMAL","","","LAB1","PLASMA","","",800,"Follow Up/Early Withdrawal","Follow-up","2013-12-23T09:36",6
"STUDY-01","LB","STUDY-01-2",153,"RBCMORPH","Erythrocyte Cell Morphology","HEMATOLOGY","DIFFERENTIALS","RBC'S: RED CELLS APPEAR NORMAL","","","","RBC'S: RED CELLS APPEAR NORMAL",NA,"",NA,NA,"NA","","","LAB1","PLASMA","","",800,"Follow Up/Early Withdrawal","Follow-up","2013-12-23T09:36",6
"STUDY-01","LB","STUDY-01-2",154,"SODIUM","Sodium","CHEMISTRY","ELECTROLYTES","175","mmol/L","135","145","175",175,"mmol/L",135,145,"NORMAL","","","LAB1","SERUM","","",800,"Follow Up/Early Withdrawal","Follow-up","2013-12-23T09:36",6
"STUDY-01","LB","STUDY-01-2",155,"UREA","Urea","CHEMISTRY","RENAL FUNCTION","6.75","mmol/L","2.5","8.1","6.75",6.75,"mmol/L",2.5,8.1,"NORMAL","","","LAB1","SERUM","","",800,"Follow Up/Early Withdrawal","Follow-up","2013-12-23T09:36",6
"STUDY-01","LB","STUDY-01-2",156,"WBC","Leukocytes","HEMATOLOGY","","7.625","10^9/L","4.0","11.0","7.625",7.625,"10^9/L",4,11,"NORMAL","","","LAB1","PLASMA","","",800,"Follow Up/Early Withdrawal","Follow-up","2013-12-23T09:36",6
"STUDY-01","LB","STUDY-01-2",157,"WBCMORPH","Leukocyte Cell Morphology","HEMATOLOGY","","WBC'S: WBC MORPHOLOGY NORMAL","","","","WBC'S: WBC MORPHOLOGY NORMAL",NA,"",NA,NA,"NA","","","LAB1","PLASMA","","",800,"Follow Up/Early Withdrawal","Follow-up","2013-12-23T09:36",6
"STUDY-01","LB","STUDY-01-3",1,"ETHANOL","Ethanol","BREATH ALCOHOL CONCENTRATION","BAC","NEGATIVE","","","NEGATIVE","NEGATIVE",NA,"",NA,NA,"NORMAL","","","LAB2","BREATH","","",1,"Screening Visit","Screening","2013-12-11",-7
"STUDY-01","LB","STUDY-01-3",2,"AMPHET","Amphetamine","URINALYSIS","DRUG SCREEN","NEGATIVE","","NEGATIVE","NEGATIVE","NEGATIVE",NA,"",NA,NA,"NORMAL","","","LAB2","URINE","","",1,"Screening Visit","Screening","2013-12-11T09:57",-7
"STUDY-01","LB","STUDY-01-3",3,"BILIU","Bilirubin Urine","URINALYSIS","","NEGATIVE","","","NEGATIVE","NEGATIVE",NA,"",NA,NA,"NORMAL","","","LAB1","URINE","","",1,"Screening Visit","Screening","2013-12-11T09:57",-7
"STUDY-01","LB","STUDY-01-3",4,"BNZDZPN","Benzodiazepine","URINALYSIS","DRUG SCREEN","NEGATIVE","","NEGATIVE","NEGATIVE","NEGATIVE",NA,"",NA,NA,"NORMAL","","","LAB2","URINE","","",1,"Screening Visit","Screening","2013-12-11T09:57",-7
"STUDY-01","LB","STUDY-01-3",5,"CANNAB","Cannabinoids","URINALYSIS","DRUG SCREEN","NEGATIVE","","NEGATIVE","NEGATIVE","NEGATIVE",NA,"",NA,NA,"NORMAL","","","LAB2","URINE","","",1,"Screening Visit","Screening","2013-12-11T09:57",-7
"STUDY-01","LB","STUDY-01-3",6,"COCAINE","Cocaine","URINALYSIS","DRUG SCREEN","NEGATIVE","","NEGATIVE","NEGATIVE","NEGATIVE",NA,"",NA,NA,"NORMAL","","","LAB2","URINE","","",1,"Screening Visit","Screening","2013-12-11T09:57",-7
"STUDY-01","LB","STUDY-01-3",7,"GLUCU","Glucose Urine","URINALYSIS","","NEGATIVE","mmol/L","","NEGATIVE","NEGATIVE",NA,"mmol/L",NA,NA,"NORMAL","","","LAB1","URINE","","",1,"Screening Visit","Screening","2013-12-11T09:57",-7
"STUDY-01","LB","STUDY-01-3",8,"KETONES","Ketones","URINALYSIS","","NEGATIVE","mmol/L","","NEGATIVE","NEGATIVE",NA,"mmol/L",NA,NA,"NORMAL","","","LAB1","URINE","","",1,"Screening Visit","Screening","2013-12-11T09:57",-7
"STUDY-01","LB","STUDY-01-3",9,"LEUKASE","Leukocyte Esterase","URINALYSIS","","NEGATIVE","","","NEGATIVE","NEGATIVE",NA,"",NA,NA,"NORMAL","","","LAB1","URINE","","",1,"Screening Visit","Screening","2013-12-11T09:57",-7
"STUDY-01","LB","STUDY-01-3",10,"NITRITE","Nitrite","URINALYSIS","","NEGATIVE","","","NEGATIVE","NEGATIVE",NA,"",NA,NA,"NORMAL","","","LAB1","URINE","","",1,"Screening Visit","Screening","2013-12-11T09:57",-7
"STUDY-01","LB","STUDY-01-3",11,"OCCBLD","Occult Blood","URINALYSIS","","NEGATIVE","","","NEGATIVE","NEGATIVE",NA,"",NA,NA,"NORMAL","","","LAB1","URINE","","",1,"Screening Visit","Screening","2013-12-11T09:57",-7
"STUDY-01","LB","STUDY-01-3",12,"OPIATE","Opiate","URINALYSIS","DRUG SCREEN","NEGATIVE","","NEGATIVE","NEGATIVE","NEGATIVE",NA,"",NA,NA,"NORMAL","","","LAB2","URINE","","",1,"Screening Visit","Screening","2013-12-11T09:57",-7
"STUDY-01","LB","STUDY-01-3",13,"OXYCDN","Oxycodone","URINALYSIS","DRUG SCREEN","NEGATIVE","","NEGATIVE","NEGATIVE","NEGATIVE",NA,"",NA,NA,"NORMAL","","","LAB2","URINE","","",1,"Screening Visit","Screening","2013-12-11T09:57",-7
"STUDY-01","LB","STUDY-01-3",14,"PH","pH","URINALYSIS","","8.125","","5.0","8.0","8.125",8.125,"",5,8,"NORMAL","","","LAB1","URINE","","",1,"Screening Visit","Screening","2013-12-11T09:57",-7
"STUDY-01","LB","STUDY-01-3",15,"PROTU","Protein Urine","URINALYSIS","","NEGATIVE","g/L","","<0.3","NEGATIVE",NA,"g/L",NA,0.3,"NORMAL","","","LAB1","URINE","","",1,"Screening Visit","Screening","2013-12-11T09:57",-7
"STUDY-01","LB","STUDY-01-3",16,"SPGRAV","Specific Gravity","URINALYSIS","","1.255","","1.005","1.030","1.255",1.255,"",1.005,1.03,"LOW","","","LAB1","URINE","","",1,"Screening Visit","Screening","2013-12-11T09:57",-7
"STUDY-01","LB","STUDY-01-3",17,"UROBIL","Urobilinogen","URINALYSIS","","4","umol/L","3.2","16.0","4",4,"umol/L",3.2,16,"NORMAL","","","LAB1","URINE","","",1,"Screening Visit","Screening","2013-12-11T09:57",-7
"STUDY-01","LB","STUDY-01-3",18,"ALB","Albumin","CHEMISTRY","LIVER FUNCTION","60","g/L","35","52","60",60,"g/L",35,52,"NORMAL","","","LAB1","SERUM","","",1,"Screening Visit","Screening","2013-12-11T10:32",-7
"STUDY-01","LB","STUDY-01-3",19,"ALT","Alanine Aminotransferase","CHEMISTRY","LIVER FUNCTION","27.5","U/L","","<46","27.5",27.5,"U/L",NA,46,"NORMAL","","","LAB1","SERUM","","",1,"Screening Visit","Screening","2013-12-11T10:32",-7
"STUDY-01","LB","STUDY-01-3",20,"AMYLASE","Amylase","CHEMISTRY","LIVER FUNCTION","101.25","U/L","30","110","101.25",101.25,"U/L",30,110,"NORMAL","","","LAB1","SERUM","","",1,"Screening Visit","Screening","2013-12-11T10:32",-7
"STUDY-01","LB","STUDY-01-3",21,"AST","Aspartate Aminotransferase","CHEMISTRY","LIVER FUNCTION","27.5","U/L","","<37","27.5",27.5,"U/L",NA,37,"NORMAL","","","LAB1","SERUM","","",1,"Screening Visit","Screening","2013-12-11T10:32",-7
"STUDY-01","LB","STUDY-01-3",22,"BASO","Basophils","HEMATOLOGY","DIFFERENTIALS","0.1375","10^9/L","0.00","0.20","0.1375",0.1375,"10^9/L",0,0.2,"NORMAL","","","LAB1","PLASMA","","",1,"Screening Visit","Screening","2013-12-11T10:32",-7
"STUDY-01","LB","STUDY-01-3",23,"BILI","Bilirubin","CHEMISTRY","LIVER FUNCTION","3.75","umol/L","","<23","3.75",3.75,"umol/L",NA,23,"NORMAL","","","LAB1","SERUM","","",1,"Screening Visit","Screening","2013-12-11T10:32",-7
"STUDY-01","LB","STUDY-01-3",24,"CA","Calcium","CHEMISTRY","ELECTROLYTES","3.0375","mmol/l","2.20","2.65","3.0375",3.0375,"mmol/l",2.2,2.65,"NORMAL","","","LAB1","SERUM","","",1,"Screening Visit","Screening","2013-12-11T10:32",-7
"STUDY-01","LB","STUDY-01-3",25,"CL","Chloride","CHEMISTRY","ELECTROLYTES","123.75","mmol/L","95","108","123.75",123.75,"mmol/L",95,108,"NORMAL","","","LAB1","SERUM","","",1,"Screening Visit","Screening","2013-12-11T10:32",-7
"STUDY-01","LB","STUDY-01-3",26,"CREAT","Creatinine","CHEMISTRY","RENAL FUNCTION","123.75","umol/L","60","110","123.75",123.75,"umol/L",60,110,"NORMAL","","","LAB1","SERUM","","",1,"Screening Visit","Screening","2013-12-11T10:32",-7
"STUDY-01","LB","STUDY-01-3",27,"EOS","Eosinophils","HEMATOLOGY","DIFFERENTIALS","0.275","10^9/L","0.00","0.40","0.275",0.275,"10^9/L",0,0.4,"NORMAL","","","LAB1","PLASMA","","",1,"Screening Visit","Screening","2013-12-11T10:32",-7
"STUDY-01","LB","STUDY-01-3",28,"GLUC","Glucose","CHEMISTRY","","7.375","mmol/L","3.6","7.0","7.375",7.375,"mmol/L",3.6,7,"NORMAL","","","LAB1","SERUM","","",1,"Screening Visit","Screening","2013-12-11T10:32",-7
"STUDY-01","LB","STUDY-01-3",29,"HBSAG","Hepatitis B Virus Surface Antigen","CHEMISTRY","SEROLOGY","NEGATIVE","","","NEGATIVE","NEGATIVE",NA,"",NA,NA,"NORMAL","","","LAB1","SERUM","","Y",1,"Screening Visit","Screening","2013-12-11T10:32",-7
"STUDY-01","LB","STUDY-01-3",30,"HCAB","Hepatitis C Virus Antibody","CHEMISTRY","SEROLOGY","NEGATIVE","","","NEGATIVE","NEGATIVE",NA,"",NA,NA,"NORMAL","","","LAB1","SERUM","","Y",1,"Screening Visit","Screening","2013-12-11T10:32",-7
"STUDY-01","LB","STUDY-01-3",31,"HCT","Hematocrit","HEMATOLOGY","","53.75","%","38","49","53.75",53.75,"%",38,49,"NORMAL","","","LAB1","PLASMA","","",1,"Screening Visit","Screening","2013-12-11T10:32",-7
"STUDY-01","LB","STUDY-01-3",32,"HGB","Hemoglobin","HEMATOLOGY","","181.25","g/L","135","170","181.25",181.25,"g/L",135,170,"NORMAL","","","LAB1","PLASMA","","",1,"Screening Visit","Screening","2013-12-11T10:32",-7
"STUDY-01","LB","STUDY-01-3",33,"HIV12AB","HIV-1/2 Antibody","CHEMISTRY","SEROLOGY","NON-REACTIVE","","","NON-REACTIVE","NON-REACTIVE",NA,"",NA,NA,"NORMAL","","","LAB1","SERUM","","Y",1,"Screening Visit","Screening","2013-12-11T10:32",-7
"STUDY-01","LB","STUDY-01-3",34,"K","Potassium","CHEMISTRY","ELECTROLYTES","5.25","mmol/L","3.3","5.1","5.25",5.25,"mmol/L",3.3,5.1,"NORMAL","","","LAB1","SERUM","","",1,"Screening Visit","Screening","2013-12-11T10:32",-7
"STUDY-01","LB","STUDY-01-3",35,"LYM","Lymphocytes","HEMATOLOGY","DIFFERENTIALS","3.675","10^9/L","1.00","3.20","3.675",3.675,"10^9/L",1,3.2,"NORMAL","","","LAB1","PLASMA","","",1,"Screening Visit","Screening","2013-12-11T10:32",-7
"STUDY-01","LB","STUDY-01-3",36,"MONO","Monocytes","HEMATOLOGY","DIFFERENTIALS","1.0875","10^9/L","0.00","0.80","1.0875",1.0875,"10^9/L",0,0.8,"HIGH","","","LAB1","PLASMA","","",1,"Screening Visit","Screening","2013-12-11T10:32",-7
"STUDY-01","LB","STUDY-01-3",37,"NEUT","Neutrophils","HEMATOLOGY","DIFFERENTIALS","8.45","10^9/L","1.80","7.00","8.45",8.45,"10^9/L",1.8,7,"NORMAL","","","LAB1","PLASMA","","",1,"Screening Visit","Screening","2013-12-11T10:32",-7
"STUDY-01","LB","STUDY-01-3",38,"PLAT","Platelets","HEMATOLOGY","","430","10^9/L","145","400","430",430,"10^9/L",145,400,"NORMAL","","","LAB1","PLASMA","","",1,"Screening Visit","Screening","2013-12-11T10:32",-7
"STUDY-01","LB","STUDY-01-3",39,"PLATMRPH","Platelet Morphology","HEMATOLOGY","","PLATELETS: PLATELET MORPHOLOGY NORMAL","","","","PLATELETS: PLATELET MORPHOLOGY NORMAL",NA,"",NA,NA,"NA","","","LAB1","PLASMA","","",1,"Screening Visit","Screening","2013-12-11T10:32",-7
"STUDY-01","LB","STUDY-01-3",40,"RBC","Erythrocytes","HEMATOLOGY","","5.675","10^12/L","4.20","5.70","5.675",5.675,"10^12/L",4.2,5.7,"NORMAL","","","LAB1","PLASMA","","",1,"Screening Visit","Screening","2013-12-11T10:32",-7
"STUDY-01","LB","STUDY-01-3",41,"RBCMORPH","Erythrocyte Cell Morphology","HEMATOLOGY","DIFFERENTIALS","RBC'S: RED CELLS APPEAR NORMAL","","","","RBC'S: RED CELLS APPEAR NORMAL",NA,"",NA,NA,"NA","","","LAB1","PLASMA","","",1,"Screening Visit","Screening","2013-12-11T10:32",-7
"STUDY-01","LB","STUDY-01-3",42,"SODIUM","Sodium","CHEMISTRY","ELECTROLYTES","172.5","mmol/L","135","145","172.5",172.5,"mmol/L",135,145,"NORMAL","","","LAB1","SERUM","","",1,"Screening Visit","Screening","2013-12-11T10:32",-7
"STUDY-01","LB","STUDY-01-3",43,"UREA","Urea","CHEMISTRY","RENAL FUNCTION","8.375","mmol/L","2.5","8.1","8.375",8.375,"mmol/L",2.5,8.1,"NORMAL","","","LAB1","SERUM","","",1,"Screening Visit","Screening","2013-12-11T10:32",-7
"STUDY-01","LB","STUDY-01-3",44,"WBC","Leukocytes","HEMATOLOGY","","13.625","10^9/L","4.0","11.0","13.625",13.625,"10^9/L",4,11,"NORMAL","","","LAB1","PLASMA","","",1,"Screening Visit","Screening","2013-12-11T10:32",-7
"STUDY-01","LB","STUDY-01-3",45,"WBCMORPH","Leukocyte Cell Morphology","HEMATOLOGY","","WBC'S: WBC MORPHOLOGY NORMAL","","","","WBC'S: WBC MORPHOLOGY NORMAL",NA,"",NA,NA,"NA","","","LAB1","PLASMA","","",1,"Screening Visit","Screening","2013-12-11T10:32",-7
"STUDY-01","LB","STUDY-01-3",46,"ETHANOL","Ethanol","BREATH ALCOHOL CONCENTRATION","BAC","NEGATIVE","","","NEGATIVE","NEGATIVE",NA,"",NA,NA,"NORMAL","","","LAB2","BREATH","","Y",100,"Treatment Period 1 Day 0","Treatment Period 1","2013-12-17",-1
"STUDY-01","LB","STUDY-01-3",47,"AMPHET","Amphetamine","URINALYSIS","DRUG SCREEN","NEGATIVE","","NEGATIVE","NEGATIVE","NEGATIVE",NA,"",NA,NA,"NORMAL","","","LAB2","URINE","","Y",100,"Treatment Period 1 Day 0","Treatment Period 1","2013-12-17T17:26",-1
"STUDY-01","LB","STUDY-01-3",48,"BILIU","Bilirubin Urine","URINALYSIS","","NEGATIVE","","","NEGATIVE","NEGATIVE",NA,"",NA,NA,"NORMAL","","","LAB1","URINE","","Y",100,"Treatment Period 1 Day 0","Treatment Period 1","2013-12-17T17:26",-1
"STUDY-01","LB","STUDY-01-3",49,"BNZDZPN","Benzodiazepine","URINALYSIS","DRUG SCREEN","NEGATIVE","","NEGATIVE","NEGATIVE","NEGATIVE",NA,"",NA,NA,"NORMAL","","","LAB2","URINE","","Y",100,"Treatment Period 1 Day 0","Treatment Period 1","2013-12-17T17:26",-1
"STUDY-01","LB","STUDY-01-3",50,"CANNAB","Cannabinoids","URINALYSIS","DRUG SCREEN","NEGATIVE","","NEGATIVE","NEGATIVE","NEGATIVE",NA,"",NA,NA,"NORMAL","","","LAB2","URINE","","Y",100,"Treatment Period 1 Day 0","Treatment Period 1","2013-12-17T17:26",-1
"STUDY-01","LB","STUDY-01-3",51,"COCAINE","Cocaine","URINALYSIS","DRUG SCREEN","NEGATIVE","","NEGATIVE","NEGATIVE","NEGATIVE",NA,"",NA,NA,"NORMAL","","","LAB2","URINE","","Y",100,"Treatment Period 1 Day 0","Treatment Period 1","2013-12-17T17:26",-1
"STUDY-01","LB","STUDY-01-3",52,"GLUCU","Glucose Urine","URINALYSIS","","NEGATIVE","mmol/L","","NEGATIVE","NEGATIVE",NA,"mmol/L",NA,NA,"NORMAL","","","LAB1","URINE","","Y",100,"Treatment Period 1 Day 0","Treatment Period 1","2013-12-17T17:26",-1
"STUDY-01","LB","STUDY-01-3",53,"KETONES","Ketones","URINALYSIS","","NEGATIVE","mmol/L","","NEGATIVE","NEGATIVE",NA,"mmol/L",NA,NA,"NORMAL","","","LAB1","URINE","","Y",100,"Treatment Period 1 Day 0","Treatment Period 1","2013-12-17T17:26",-1
"STUDY-01","LB","STUDY-01-3",54,"LEUKASE","Leukocyte Esterase","URINALYSIS","","NEGATIVE","","","NEGATIVE","NEGATIVE",NA,"",NA,NA,"NORMAL","","","LAB1","URINE","","Y",100,"Treatment Period 1 Day 0","Treatment Period 1","2013-12-17T17:26",-1
"STUDY-01","LB","STUDY-01-3",55,"NITRITE","Nitrite","URINALYSIS","","NEGATIVE","","","NEGATIVE","NEGATIVE",NA,"",NA,NA,"NORMAL","","","LAB1","URINE","","Y",100,"Treatment Period 1 Day 0","Treatment Period 1","2013-12-17T17:26",-1
"STUDY-01","LB","STUDY-01-3",56,"OCCBLD","Occult Blood","URINALYSIS","","NEGATIVE","","","NEGATIVE","NEGATIVE",NA,"",NA,NA,"NORMAL","","","LAB1","URINE","","Y",100,"Treatment Period 1 Day 0","Treatment Period 1","2013-12-17T17:26",-1
"STUDY-01","LB","STUDY-01-3",57,"OPIATE","Opiate","URINALYSIS","DRUG SCREEN","NEGATIVE","","NEGATIVE","NEGATIVE","NEGATIVE",NA,"",NA,NA,"NORMAL","","","LAB2","URINE","","Y",100,"Treatment Period 1 Day 0","Treatment Period 1","2013-12-17T17:26",-1
"STUDY-01","LB","STUDY-01-3",58,"OXYCDN","Oxycodone","URINALYSIS","DRUG SCREEN","NEGATIVE","","NEGATIVE","NEGATIVE","NEGATIVE",NA,"",NA,NA,"NORMAL","","","LAB2","URINE","","Y",100,"Treatment Period 1 Day 0","Treatment Period 1","2013-12-17T17:26",-1
"STUDY-01","LB","STUDY-01-3",59,"PH","pH","URINALYSIS","","6.875","","5.0","8.0","6.875",6.875,"",5,8,"NORMAL","","","LAB1","URINE","","Y",100,"Treatment Period 1 Day 0","Treatment Period 1","2013-12-17T17:26",-1
"STUDY-01","LB","STUDY-01-3",60,"PROTU","Protein Urine","URINALYSIS","","NEGATIVE","g/L","","<0.3","NEGATIVE",NA,"g/L",NA,0.3,"NORMAL","","","LAB1","URINE","","Y",100,"Treatment Period 1 Day 0","Treatment Period 1","2013-12-17T17:26",-1
"STUDY-01","LB","STUDY-01-3",61,"SPGRAV","Specific Gravity","URINALYSIS","","1.28125","","1.005","1.030","1.28125",1.28125,"",1.005,1.03,"NORMAL","","","LAB1","URINE","","Y",100,"Treatment Period 1 Day 0","Treatment Period 1","2013-12-17T17:26",-1
"STUDY-01","LB","STUDY-01-3",62,"UROBIL","Urobilinogen","URINALYSIS","","4","umol/L","3.2","16.0","4",4,"umol/L",3.2,16,"NORMAL","","","LAB1","URINE","","Y",100,"Treatment Period 1 Day 0","Treatment Period 1","2013-12-17T17:26",-1
"STUDY-01","LB","STUDY-01-3",63,"ALB","Albumin","CHEMISTRY","LIVER FUNCTION","57.5","g/L","35","52","57.5",57.5,"g/L",35,52,"NORMAL","","","LAB1","SERUM","","Y",100,"Treatment Period 1 Day 0","Treatment Period 1","2013-12-17T18:09",-1
"STUDY-01","LB","STUDY-01-3",64,"ALT","Alanine Aminotransferase","CHEMISTRY","LIVER FUNCTION","23.75","U/L","","<46","23.75",23.75,"U/L",NA,46,"NORMAL","","","LAB1","SERUM","","Y",100,"Treatment Period 1 Day 0","Treatment Period 1","2013-12-17T18:09",-1
"STUDY-01","LB","STUDY-01-3",65,"AMYLASE","Amylase","CHEMISTRY","LIVER FUNCTION","118.75","U/L","30","110","118.75",118.75,"U/L",30,110,"NORMAL","","","LAB1","SERUM","","Y",100,"Treatment Period 1 Day 0","Treatment Period 1","2013-12-17T18:09",-1
"STUDY-01","LB","STUDY-01-3",66,"AST","Aspartate Aminotransferase","CHEMISTRY","LIVER FUNCTION","27.5","U/L","","<37","27.5",27.5,"U/L",NA,37,"NORMAL","","","LAB1","SERUM","","Y",100,"Treatment Period 1 Day 0","Treatment Period 1","2013-12-17T18:09",-1
"STUDY-01","LB","STUDY-01-3",67,"BASO","Basophils","HEMATOLOGY","DIFFERENTIALS","0","10^9/L","0.00","0.20","0",0,"10^9/L",0,0.2,"NORMAL","","","LAB1","PLASMA","","Y",100,"Treatment Period 1 Day 0","Treatment Period 1","2013-12-17T18:09",-1
"STUDY-01","LB","STUDY-01-3",68,"BILI","Bilirubin","CHEMISTRY","LIVER FUNCTION","5","umol/L","","<23","5",5,"umol/L",NA,23,"NORMAL","","","LAB1","SERUM","","Y",100,"Treatment Period 1 Day 0","Treatment Period 1","2013-12-17T18:09",-1
"STUDY-01","LB","STUDY-01-3",69,"CA","Calcium","CHEMISTRY","ELECTROLYTES","3.2","mmol/l","2.20","2.65","3.2",3.2,"mmol/l",2.2,2.65,"NORMAL","","","LAB1","SERUM","","Y",100,"Treatment Period 1 Day 0","Treatment Period 1","2013-12-17T18:09",-1
"STUDY-01","LB","STUDY-01-3",70,"CL","Chloride","CHEMISTRY","ELECTROLYTES","123.75","mmol/L","95","108","123.75",123.75,"mmol/L",95,108,"NORMAL","","","LAB1","SERUM","","Y",100,"Treatment Period 1 Day 0","Treatment Period 1","2013-12-17T18:09",-1
"STUDY-01","LB","STUDY-01-3",71,"CREAT","Creatinine","CHEMISTRY","RENAL FUNCTION","140","umol/L","60","110","140",140,"umol/L",60,110,"HIGH","","","LAB1","SERUM","","Y",100,"Treatment Period 1 Day 0","Treatment Period 1","2013-12-17T18:09",-1
"STUDY-01","LB","STUDY-01-3",72,"EOS","Eosinophils","HEMATOLOGY","DIFFERENTIALS","0.2875","10^9/L","0.00","0.40","0.2875",0.2875,"10^9/L",0,0.4,"NORMAL","","","LAB1","PLASMA","","Y",100,"Treatment Period 1 Day 0","Treatment Period 1","2013-12-17T18:09",-1
"STUDY-01","LB","STUDY-01-3",73,"GLUC","Glucose","CHEMISTRY","","5.75","mmol/L","3.6","7.0","5.75",5.75,"mmol/L",3.6,7,"NORMAL","","","LAB1","SERUM","","Y",100,"Treatment Period 1 Day 0","Treatment Period 1","2013-12-17T18:09",-1
"STUDY-01","LB","STUDY-01-3",74,"HCT","Hematocrit","HEMATOLOGY","","53.75","%","38","49","53.75",53.75,"%",38,49,"NORMAL","","","LAB1","PLASMA","","Y",100,"Treatment Period 1 Day 0","Treatment Period 1","2013-12-17T18:09",-1
"STUDY-01","LB","STUDY-01-3",75,"HGB","Hemoglobin","HEMATOLOGY","","180","g/L","135","170","180",180,"g/L",135,170,"NORMAL","","","LAB1","PLASMA","","Y",100,"Treatment Period 1 Day 0","Treatment Period 1","2013-12-17T18:09",-1
"STUDY-01","LB","STUDY-01-3",76,"K","Potassium","CHEMISTRY","ELECTROLYTES","6","mmol/L","3.3","5.1","6",6,"mmol/L",3.3,5.1,"NORMAL","","","LAB1","SERUM","","Y",100,"Treatment Period 1 Day 0","Treatment Period 1","2013-12-17T18:09",-1
"STUDY-01","LB","STUDY-01-3",77,"LYM","Lymphocytes","HEMATOLOGY","DIFFERENTIALS","3.6625","10^9/L","1.00","3.20","3.6625",3.6625,"10^9/L",1,3.2,"NORMAL","","","LAB1","PLASMA","","Y",100,"Treatment Period 1 Day 0","Treatment Period 1","2013-12-17T18:09",-1
"STUDY-01","LB","STUDY-01-3",78,"MONO","Monocytes","HEMATOLOGY","DIFFERENTIALS","1.025","10^9/L","0.00","0.80","1.025",1.025,"10^9/L",0,0.8,"HIGH","","","LAB1","PLASMA","","Y",100,"Treatment Period 1 Day 0","Treatment Period 1","2013-12-17T18:09",-1
"STUDY-01","LB","STUDY-01-3",79,"NEUT","Neutrophils","HEMATOLOGY","DIFFERENTIALS","9.65","10^9/L","1.80","7.00","9.65",9.65,"10^9/L",1.8,7,"HIGH","","","LAB1","PLASMA","","Y",100,"Treatment Period 1 Day 0","Treatment Period 1","2013-12-17T18:09",-1
"STUDY-01","LB","STUDY-01-3",80,"PLAT","Platelets","HEMATOLOGY","","433.75","10^9/L","145","400","433.75",433.75,"10^9/L",145,400,"NORMAL","","","LAB1","PLASMA","","Y",100,"Treatment Period 1 Day 0","Treatment Period 1","2013-12-17T18:09",-1
"STUDY-01","LB","STUDY-01-3",81,"PLATMRPH","Platelet Morphology","HEMATOLOGY","","PLATELETS: PLATELET MORPHOLOGY NORMAL","","","","PLATELETS: PLATELET MORPHOLOGY NORMAL",NA,"",NA,NA,"NA","","","LAB1","PLASMA","","Y",100,"Treatment Period 1 Day 0","Treatment Period 1","2013-12-17T18:09",-1
"STUDY-01","LB","STUDY-01-3",82,"RBC","Erythrocytes","HEMATOLOGY","","5.6625","10^12/L","4.20","5.70","5.6625",5.6625,"10^12/L",4.2,5.7,"NORMAL","","","LAB1","PLASMA","","Y",100,"Treatment Period 1 Day 0","Treatment Period 1","2013-12-17T18:09",-1
"STUDY-01","LB","STUDY-01-3",83,"RBCMORPH","Erythrocyte Cell Morphology","HEMATOLOGY","DIFFERENTIALS","RBC'S: RED CELLS APPEAR NORMAL","","","","RBC'S: RED CELLS APPEAR NORMAL",NA,"",NA,NA,"NA","","","LAB1","PLASMA","","Y",100,"Treatment Period 1 Day 0","Treatment Period 1","2013-12-17T18:09",-1
"STUDY-01","LB","STUDY-01-3",84,"SODIUM","Sodium","CHEMISTRY","ELECTROLYTES","171.25","mmol/L","135","145","171.25",171.25,"mmol/L",135,145,"NORMAL","","","LAB1","SERUM","","Y",100,"Treatment Period 1 Day 0","Treatment Period 1","2013-12-17T18:09",-1
"STUDY-01","LB","STUDY-01-3",85,"UREA","Urea","CHEMISTRY","RENAL FUNCTION","9.625","mmol/L","2.5","8.1","9.625",9.625,"mmol/L",2.5,8.1,"NORMAL","","","LAB1","SERUM","","Y",100,"Treatment Period 1 Day 0","Treatment Period 1","2013-12-17T18:09",-1
"STUDY-01","LB","STUDY-01-3",86,"WBC","Leukocytes","HEMATOLOGY","","14.625","10^9/L","4.0","11.0","14.625",14.625,"10^9/L",4,11,"HIGH","","","LAB1","PLASMA","","Y",100,"Treatment Period 1 Day 0","Treatment Period 1","2013-12-17T18:09",-1
"STUDY-01","LB","STUDY-01-3",87,"WBCMORPH","Leukocyte Cell Morphology","HEMATOLOGY","","WBC'S: WBC MORPHOLOGY NORMAL","","","","WBC'S: WBC MORPHOLOGY NORMAL",NA,"",NA,NA,"NA","","","LAB1","PLASMA","","Y",100,"Treatment Period 1 Day 0","Treatment Period 1","2013-12-17T18:09",-1
"STUDY-01","LB","STUDY-01-3",88,"BILIU","Bilirubin Urine","URINALYSIS","","NEGATIVE","","","NEGATIVE","NEGATIVE",NA,"",NA,NA,"NORMAL","","","LAB1","URINE","","",140,"Treatment Period 1 Day 4","Treatment Period 1","2013-12-21T08:24",4
"STUDY-01","LB","STUDY-01-3",89,"GLUCU","Glucose Urine","URINALYSIS","","NEGATIVE","mmol/L","","NEGATIVE","NEGATIVE",NA,"mmol/L",NA,NA,"NORMAL","","","LAB1","URINE","","",140,"Treatment Period 1 Day 4","Treatment Period 1","2013-12-21T08:24",4
"STUDY-01","LB","STUDY-01-3",90,"KETONES","Ketones","URINALYSIS","","NEGATIVE","mmol/L","","NEGATIVE","NEGATIVE",NA,"mmol/L",NA,NA,"NORMAL","","","LAB1","URINE","","",140,"Treatment Period 1 Day 4","Treatment Period 1","2013-12-21T08:24",4
"STUDY-01","LB","STUDY-01-3",91,"LEUKASE","Leukocyte Esterase","URINALYSIS","","NEGATIVE","","","NEGATIVE","NEGATIVE",NA,"",NA,NA,"NORMAL","","","LAB1","URINE","","",140,"Treatment Period 1 Day 4","Treatment Period 1","2013-12-21T08:24",4
"STUDY-01","LB","STUDY-01-3",92,"NITRITE","Nitrite","URINALYSIS","","NEGATIVE","","","NEGATIVE","NEGATIVE",NA,"",NA,NA,"NORMAL","","","LAB1","URINE","","",140,"Treatment Period 1 Day 4","Treatment Period 1","2013-12-21T08:24",4
"STUDY-01","LB","STUDY-01-3",93,"OCCBLD","Occult Blood","URINALYSIS","","NEGATIVE","","","NEGATIVE","NEGATIVE",NA,"",NA,NA,"NORMAL","","","LAB1","URINE","","",140,"Treatment Period 1 Day 4","Treatment Period 1","2013-12-21T08:24",4
"STUDY-01","LB","STUDY-01-3",94,"PH","pH","URINALYSIS","","6.875","","5.0","8.0","6.875",6.875,"",5,8,"NORMAL","","","LAB1","URINE","","",140,"Treatment Period 1 Day 4","Treatment Period 1","2013-12-21T08:24",4
"STUDY-01","LB","STUDY-01-3",95,"PROTU","Protein Urine","URINALYSIS","","NEGATIVE","g/L","","<0.3","NEGATIVE",NA,"g/L",NA,0.3,"NORMAL","","","LAB1","URINE","","",140,"Treatment Period 1 Day 4","Treatment Period 1","2013-12-21T08:24",4
"STUDY-01","LB","STUDY-01-3",96,"SPGRAV","Specific Gravity","URINALYSIS","","1.27125","","1.005","1.030","1.27125",1.27125,"",1.005,1.03,"NORMAL","","","LAB1","URINE","","",140,"Treatment Period 1 Day 4","Treatment Period 1","2013-12-21T08:24",4
"STUDY-01","LB","STUDY-01-3",97,"UROBIL","Urobilinogen","URINALYSIS","","4","umol/L","3.2","16.0","4",4,"umol/L",3.2,16,"NORMAL","","","LAB1","URINE","","",140,"Treatment Period 1 Day 4","Treatment Period 1","2013-12-21T08:24",4
"STUDY-01","LB","STUDY-01-3",98,"ALB","Albumin","CHEMISTRY","LIVER FUNCTION","56.25","g/L","35","52","56.25",56.25,"g/L",35,52,"NORMAL","","","LAB1","SERUM","","",140,"Treatment Period 1 Day 4","Treatment Period 1","2013-12-21T09:10",4
"STUDY-01","LB","STUDY-01-3",99,"ALT","Alanine Aminotransferase","CHEMISTRY","LIVER FUNCTION","42.5","U/L","","<46","42.5",42.5,"U/L",NA,46,"NORMAL","","","LAB1","SERUM","","",140,"Treatment Period 1 Day 4","Treatment Period 1","2013-12-21T09:10",4
"STUDY-01","LB","STUDY-01-3",100,"AMYLASE","Amylase","CHEMISTRY","LIVER FUNCTION","117.5","U/L","30","110","117.5",117.5,"U/L",30,110,"NORMAL","","","LAB1","SERUM","","",140,"Treatment Period 1 Day 4","Treatment Period 1","2013-12-21T09:10",4
"STUDY-01","LB","STUDY-01-3",101,"AST","Aspartate Aminotransferase","CHEMISTRY","LIVER FUNCTION","27.5","U/L","","<37","27.5",27.5,"U/L",NA,37,"NORMAL","","","LAB1","SERUM","","",140,"Treatment Period 1 Day 4","Treatment Period 1","2013-12-21T09:10",4
"STUDY-01","LB","STUDY-01-3",102,"BASO","Basophils","HEMATOLOGY","DIFFERENTIALS","0.1125","10^9/L","0.00","0.20","0.1125",0.1125,"10^9/L",0,0.2,"NORMAL","","","LAB1","PLASMA","","",140,"Treatment Period 1 Day 4","Treatment Period 1","2013-12-21T09:10",4
"STUDY-01","LB","STUDY-01-3",103,"BILI","Bilirubin","CHEMISTRY","LIVER FUNCTION","8.75","umol/L","","<23","8.75",8.75,"umol/L",NA,23,"NORMAL","","","LAB1","SERUM","","",140,"Treatment Period 1 Day 4","Treatment Period 1","2013-12-21T09:10",4
"STUDY-01","LB","STUDY-01-3",104,"CA","Calcium","CHEMISTRY","ELECTROLYTES","2.85","mmol/l","2.20","2.65","2.85",2.85,"mmol/l",2.2,2.65,"NORMAL","","","LAB1","SERUM","","",140,"Treatment Period 1 Day 4","Treatment Period 1","2013-12-21T09:10",4
"STUDY-01","LB","STUDY-01-3",105,"CL","Chloride","CHEMISTRY","ELECTROLYTES","125","mmol/L","95","108","125",125,"mmol/L",95,108,"NORMAL","","","LAB1","SERUM","","",140,"Treatment Period 1 Day 4","Treatment Period 1","2013-12-21T09:10",4
"STUDY-01","LB","STUDY-01-3",106,"CREAT","Creatinine","CHEMISTRY","RENAL FUNCTION","111.25","umol/L","60","110","111.25",111.25,"umol/L",60,110,"NORMAL","","","LAB1","SERUM","","",140,"Treatment Period 1 Day 4","Treatment Period 1","2013-12-21T09:10",4
"STUDY-01","LB","STUDY-01-3",107,"EOS","Eosinophils","HEMATOLOGY","DIFFERENTIALS","0.35","10^9/L","0.00","0.40","0.35",0.35,"10^9/L",0,0.4,"NORMAL","","","LAB1","PLASMA","","",140,"Treatment Period 1 Day 4","Treatment Period 1","2013-12-21T09:10",4
"STUDY-01","LB","STUDY-01-3",108,"GLUC","Glucose","CHEMISTRY","","6.625","mmol/L","3.6","7.0","6.625",6.625,"mmol/L",3.6,7,"NORMAL","","","LAB1","SERUM","","",140,"Treatment Period 1 Day 4","Treatment Period 1","2013-12-21T09:10",4
"STUDY-01","LB","STUDY-01-3",109,"HCT","Hematocrit","HEMATOLOGY","","51.25","%","38","49","51.25",51.25,"%",38,49,"NORMAL","","","LAB1","PLASMA","","",140,"Treatment Period 1 Day 4","Treatment Period 1","2013-12-21T09:10",4
"STUDY-01","LB","STUDY-01-3",110,"HGB","Hemoglobin","HEMATOLOGY","","172.5","g/L","135","170","172.5",172.5,"g/L",135,170,"NORMAL","","","LAB1","PLASMA","","",140,"Treatment Period 1 Day 4","Treatment Period 1","2013-12-21T09:10",4
"STUDY-01","LB","STUDY-01-3",111,"K","Potassium","CHEMISTRY","ELECTROLYTES","6.125","mmol/L","3.3","5.1","6.125",6.125,"mmol/L",3.3,5.1,"NORMAL","","","LAB1","SERUM","","",140,"Treatment Period 1 Day 4","Treatment Period 1","2013-12-21T09:10",4
"STUDY-01","LB","STUDY-01-3",112,"LYM","Lymphocytes","HEMATOLOGY","DIFFERENTIALS","3.6","10^9/L","1.00","3.20","3.6",3.6,"10^9/L",1,3.2,"NORMAL","","","LAB1","PLASMA","","",140,"Treatment Period 1 Day 4","Treatment Period 1","2013-12-21T09:10",4
"STUDY-01","LB","STUDY-01-3",113,"MONO","Monocytes","HEMATOLOGY","DIFFERENTIALS","1.1625","10^9/L","0.00","0.80","1.1625",1.1625,"10^9/L",0,0.8,"HIGH","","","LAB1","PLASMA","","",140,"Treatment Period 1 Day 4","Treatment Period 1","2013-12-21T09:10",4
"STUDY-01","LB","STUDY-01-3",114,"NEUT","Neutrophils","HEMATOLOGY","DIFFERENTIALS","6.4","10^9/L","1.80","7.00","6.4",6.4,"10^9/L",1.8,7,"NORMAL","","","LAB1","PLASMA","","",140,"Treatment Period 1 Day 4","Treatment Period 1","2013-12-21T09:10",4
"STUDY-01","LB","STUDY-01-3",115,"PLAT","Platelets","HEMATOLOGY","","413.75","10^9/L","145","400","413.75",413.75,"10^9/L",145,400,"NORMAL","","","LAB1","PLASMA","","",140,"Treatment Period 1 Day 4","Treatment Period 1","2013-12-21T09:10",4
"STUDY-01","LB","STUDY-01-3",116,"PLATMRPH","Platelet Morphology","HEMATOLOGY","","PLATELETS: PLATELET MORPHOLOGY NORMAL","","","","PLATELETS: PLATELET MORPHOLOGY NORMAL",NA,"",NA,NA,"NA","","","LAB1","PLASMA","","",140,"Treatment Period 1 Day 4","Treatment Period 1","2013-12-21T09:10",4
"STUDY-01","LB","STUDY-01-3",117,"RBC","Erythrocytes","HEMATOLOGY","","5.5125","10^12/L","4.20","5.70","5.5125",5.5125,"10^12/L",4.2,5.7,"NORMAL","","","LAB1","PLASMA","","",140,"Treatment Period 1 Day 4","Treatment Period 1","2013-12-21T09:10",4
"STUDY-01","LB","STUDY-01-3",118,"RBCMORPH","Erythrocyte Cell Morphology","HEMATOLOGY","DIFFERENTIALS","RBC'S: RED CELLS APPEAR NORMAL","","","","RBC'S: RED CELLS APPEAR NORMAL",NA,"",NA,NA,"NA","","","LAB1","PLASMA","","",140,"Treatment Period 1 Day 4","Treatment Period 1","2013-12-21T09:10",4
"STUDY-01","LB","STUDY-01-3",119,"SODIUM","Sodium","CHEMISTRY","ELECTROLYTES","176.25","mmol/L","135","145","176.25",176.25,"mmol/L",135,145,"NORMAL","","","LAB1","SERUM","","",140,"Treatment Period 1 Day 4","Treatment Period 1","2013-12-21T09:10",4
"STUDY-01","LB","STUDY-01-3",120,"UREA","Urea","CHEMISTRY","RENAL FUNCTION","8.25","mmol/L","2.5","8.1","8.25",8.25,"mmol/L",2.5,8.1,"NORMAL","","","LAB1","SERUM","","",140,"Treatment Period 1 Day 4","Treatment Period 1","2013-12-21T09:10",4
"STUDY-01","LB","STUDY-01-3",121,"WBC","Leukocytes","HEMATOLOGY","","11.625","10^9/L","4.0","11.0","11.625",11.625,"10^9/L",4,11,"NORMAL","","","LAB1","PLASMA","","",140,"Treatment Period 1 Day 4","Treatment Period 1","2013-12-21T09:10",4
"STUDY-01","LB","STUDY-01-3",122,"WBCMORPH","Leukocyte Cell Morphology","HEMATOLOGY","","WBC'S: WBC MORPHOLOGY NORMAL","","","","WBC'S: WBC MORPHOLOGY NORMAL",NA,"",NA,NA,"NA","","","LAB1","PLASMA","","",140,"Treatment Period 1 Day 4","Treatment Period 1","2013-12-21T09:10",4
"STUDY-01","LB","STUDY-01-3",123,"ETHANOL","Ethanol","BREATH ALCOHOL CONCENTRATION","BAC","NEGATIVE","","","NEGATIVE","NEGATIVE",NA,"",NA,NA,"NORMAL","","","LAB2","BREATH","","Y",200,"Treatment Period 2 Day 0","Treatment Period 2","2013-12-27",10
"STUDY-01","LB","STUDY-01-3",124,"AMPHET","Amphetamine","URINALYSIS","DRUG SCREEN","NEGATIVE","","NEGATIVE","NEGATIVE","NEGATIVE",NA,"",NA,NA,"NORMAL","","","LAB2","URINE","","Y",200,"Treatment Period 2 Day 0","Treatment Period 2","2013-12-27T16:34",10
"STUDY-01","LB","STUDY-01-3",125,"BILIU","Bilirubin Urine","URINALYSIS","","NEGATIVE","","","NEGATIVE","NEGATIVE",NA,"",NA,NA,"NORMAL","","","LAB1","URINE","","Y",200,"Treatment Period 2 Day 0","Treatment Period 2","2013-12-27T16:34",10
"STUDY-01","LB","STUDY-01-3",126,"BNZDZPN","Benzodiazepine","URINALYSIS","DRUG SCREEN","NEGATIVE","","NEGATIVE","NEGATIVE","NEGATIVE",NA,"",NA,NA,"NORMAL","","","LAB2","URINE","","Y",200,"Treatment Period 2 Day 0","Treatment Period 2","2013-12-27T16:34",10
"STUDY-01","LB","STUDY-01-3",127,"CANNAB","Cannabinoids","URINALYSIS","DRUG SCREEN","NEGATIVE","","NEGATIVE","NEGATIVE","NEGATIVE",NA,"",NA,NA,"NORMAL","","","LAB2","URINE","","Y",200,"Treatment Period 2 Day 0","Treatment Period 2","2013-12-27T16:34",10
"STUDY-01","LB","STUDY-01-3",128,"COCAINE","Cocaine","URINALYSIS","DRUG SCREEN","NEGATIVE","","NEGATIVE","NEGATIVE","NEGATIVE",NA,"",NA,NA,"NORMAL","","","LAB2","URINE","","Y",200,"Treatment Period 2 Day 0","Treatment Period 2","2013-12-27T16:34",10
"STUDY-01","LB","STUDY-01-3",129,"GLUCU","Glucose Urine","URINALYSIS","","NEGATIVE","mmol/L","","NEGATIVE","NEGATIVE",NA,"mmol/L",NA,NA,"NORMAL","","","LAB1","URINE","","Y",200,"Treatment Period 2 Day 0","Treatment Period 2","2013-12-27T16:34",10
"STUDY-01","LB","STUDY-01-3",130,"KETONES","Ketones","URINALYSIS","","NEGATIVE","mmol/L","","NEGATIVE","NEGATIVE",NA,"mmol/L",NA,NA,"NORMAL","","","LAB1","URINE","","Y",200,"Treatment Period 2 Day 0","Treatment Period 2","2013-12-27T16:34",10
"STUDY-01","LB","STUDY-01-3",131,"LEUKASE","Leukocyte Esterase","URINALYSIS","","NEGATIVE","","","NEGATIVE","NEGATIVE",NA,"",NA,NA,"NORMAL","","","LAB1","URINE","","Y",200,"Treatment Period 2 Day 0","Treatment Period 2","2013-12-27T16:34",10
"STUDY-01","LB","STUDY-01-3",132,"NITRITE","Nitrite","URINALYSIS","","NEGATIVE","","","NEGATIVE","NEGATIVE",NA,"",NA,NA,"NORMAL","","","LAB1","URINE","","Y",200,"Treatment Period 2 Day 0","Treatment Period 2","2013-12-27T16:34",10
"STUDY-01","LB","STUDY-01-3",133,"OCCBLD","Occult Blood","URINALYSIS","","NEGATIVE","","","NEGATIVE","NEGATIVE",NA,"",NA,NA,"NORMAL","","","LAB1","URINE","","Y",200,"Treatment Period 2 Day 0","Treatment Period 2","2013-12-27T16:34",10
"STUDY-01","LB","STUDY-01-3",134,"OPIATE","Opiate","URINALYSIS","DRUG SCREEN","NEGATIVE","","NEGATIVE","NEGATIVE","NEGATIVE",NA,"",NA,NA,"NORMAL","","","LAB2","URINE","","Y",200,"Treatment Period 2 Day 0","Treatment Period 2","2013-12-27T16:34",10
"STUDY-01","LB","STUDY-01-3",135,"OXYCDN","Oxycodone","URINALYSIS","DRUG SCREEN","NEGATIVE","","NEGATIVE","NEGATIVE","NEGATIVE",NA,"",NA,NA,"NORMAL","","","LAB2","URINE","","Y",200,"Treatment Period 2 Day 0","Treatment Period 2","2013-12-27T16:34",10
"STUDY-01","LB","STUDY-01-3",136,"PH","pH","URINALYSIS","","8.125","","5.0","8.0","8.125",8.125,"",5,8,"NORMAL","","","LAB1","URINE","","Y",200,"Treatment Period 2 Day 0","Treatment Period 2","2013-12-27T16:34",10
"STUDY-01","LB","STUDY-01-3",137,"PROTU","Protein Urine","URINALYSIS","","NEGATIVE","g/L","","<0.3","NEGATIVE",NA,"g/L",NA,0.3,"NORMAL","","","LAB1","URINE","","Y",200,"Treatment Period 2 Day 0","Treatment Period 2","2013-12-27T16:34",10
"STUDY-01","LB","STUDY-01-3",138,"SPGRAV","Specific Gravity","URINALYSIS","","1.28","","1.005","1.030","1.28",1.28,"",1.005,1.03,"NORMAL","","","LAB1","URINE","","Y",200,"Treatment Period 2 Day 0","Treatment Period 2","2013-12-27T16:34",10
"STUDY-01","LB","STUDY-01-3",139,"UROBIL","Urobilinogen","URINALYSIS","","4","umol/L","3.2","16.0","4",4,"umol/L",3.2,16,"NORMAL","","","LAB1","URINE","","Y",200,"Treatment Period 2 Day 0","Treatment Period 2","2013-12-27T16:34",10
"STUDY-01","LB","STUDY-01-3",140,"ALB","Albumin","CHEMISTRY","LIVER FUNCTION","57.5","g/L","35","52","57.5",57.5,"g/L",35,52,"NORMAL","","","LAB1","SERUM","","Y",200,"Treatment Period 2 Day 0","Treatment Period 2","2013-12-27T17:29",10
"STUDY-01","LB","STUDY-01-3",141,"ALT","Alanine Aminotransferase","CHEMISTRY","LIVER FUNCTION","21.25","U/L","","<46","21.25",21.25,"U/L",NA,46,"NORMAL","","","LAB1","SERUM","","Y",200,"Treatment Period 2 Day 0","Treatment Period 2","2013-12-27T17:29",10
"STUDY-01","LB","STUDY-01-3",142,"AMYLASE","Amylase","CHEMISTRY","LIVER FUNCTION","126.25","U/L","30","110","126.25",126.25,"U/L",30,110,"NORMAL","","","LAB1","SERUM","","Y",200,"Treatment Period 2 Day 0","Treatment Period 2","2013-12-27T17:29",10
"STUDY-01","LB","STUDY-01-3",143,"AST","Aspartate Aminotransferase","CHEMISTRY","LIVER FUNCTION","16.25","U/L","","<37","16.25",16.25,"U/L",NA,37,"NORMAL","","","LAB1","SERUM","","Y",200,"Treatment Period 2 Day 0","Treatment Period 2","2013-12-27T17:29",10
"STUDY-01","LB","STUDY-01-3",144,"BASO","Basophils","HEMATOLOGY","DIFFERENTIALS","0.15","10^9/L","0.00","0.20","0.15",0.15,"10^9/L",0,0.2,"NORMAL","","","LAB1","PLASMA","","Y",200,"Treatment Period 2 Day 0","Treatment Period 2","2013-12-27T17:29",10
"STUDY-01","LB","STUDY-01-3",145,"BILI","Bilirubin","CHEMISTRY","LIVER FUNCTION","2.5","umol/L","","<23","2.5",2.5,"umol/L",NA,23,"NORMAL","","","LAB1","SERUM","","Y",200,"Treatment Period 2 Day 0","Treatment Period 2","2013-12-27T17:29",10
"STUDY-01","LB","STUDY-01-3",146,"CA","Calcium","CHEMISTRY","ELECTROLYTES","3.1","mmol/l","2.20","2.65","3.1",3.1,"mmol/l",2.2,2.65,"NORMAL","","","LAB1","SERUM","","Y",200,"Treatment Period 2 Day 0","Treatment Period 2","2013-12-27T17:29",10
"STUDY-01","LB","STUDY-01-3",147,"CL","Chloride","CHEMISTRY","ELECTROLYTES","121.25","mmol/L","95","108","121.25",121.25,"mmol/L",95,108,"NORMAL","","","LAB1","SERUM","","Y",200,"Treatment Period 2 Day 0","Treatment Period 2","2013-12-27T17:29",10
"STUDY-01","LB","STUDY-01-3",148,"CREAT","Creatinine","CHEMISTRY","RENAL FUNCTION","137.5","umol/L","60","110","137.5",137.5,"umol/L",60,110,"NORMAL","","","LAB1","SERUM","","Y",200,"Treatment Period 2 Day 0","Treatment Period 2","2013-12-27T17:29",10
"STUDY-01","LB","STUDY-01-3",149,"EOS","Eosinophils","HEMATOLOGY","DIFFERENTIALS","0.4375","10^9/L","0.00","0.40","0.4375",0.4375,"10^9/L",0,0.4,"NORMAL","","","LAB1","PLASMA","","Y",200,"Treatment Period 2 Day 0","Treatment Period 2","2013-12-27T17:29",10
"STUDY-01","LB","STUDY-01-3",150,"GLUC","Glucose","CHEMISTRY","","6.25","mmol/L","3.6","7.0","6.25",6.25,"mmol/L",3.6,7,"NORMAL","","","LAB1","SERUM","","Y",200,"Treatment Period 2 Day 0","Treatment Period 2","2013-12-27T17:29",10
"STUDY-01","LB","STUDY-01-3",151,"HCT","Hematocrit","HEMATOLOGY","","52.5","%","38","49","52.5",52.5,"%",38,49,"NORMAL","","","LAB1","PLASMA","","Y",200,"Treatment Period 2 Day 0","Treatment Period 2","2013-12-27T17:29",10
"STUDY-01","LB","STUDY-01-3",152,"HGB","Hemoglobin","HEMATOLOGY","","178.75","g/L","135","170","178.75",178.75,"g/L",135,170,"NORMAL","","","LAB1","PLASMA","","Y",200,"Treatment Period 2 Day 0","Treatment Period 2","2013-12-27T17:29",10
"STUDY-01","LB","STUDY-01-3",153,"K","Potassium","CHEMISTRY","ELECTROLYTES","6.25","mmol/L","3.3","5.1","6.25",6.25,"mmol/L",3.3,5.1,"NORMAL","","","LAB1","SERUM","","Y",200,"Treatment Period 2 Day 0","Treatment Period 2","2013-12-27T17:29",10
"STUDY-01","LB","STUDY-01-3",154,"LYM","Lymphocytes","HEMATOLOGY","DIFFERENTIALS","4.3125","10^9/L","1.00","3.20","4.3125",4.3125,"10^9/L",1,3.2,"HIGH","","","LAB1","PLASMA","","Y",200,"Treatment Period 2 Day 0","Treatment Period 2","2013-12-27T17:29",10
"STUDY-01","LB","STUDY-01-3",155,"MONO","Monocytes","HEMATOLOGY","DIFFERENTIALS","1.0125","10^9/L","0.00","0.80","1.0125",1.0125,"10^9/L",0,0.8,"HIGH","","","LAB1","PLASMA","","Y",200,"Treatment Period 2 Day 0","Treatment Period 2","2013-12-27T17:29",10
"STUDY-01","LB","STUDY-01-3",156,"NEUT","Neutrophils","HEMATOLOGY","DIFFERENTIALS","8.4875","10^9/L","1.80","7.00","8.4875",8.4875,"10^9/L",1.8,7,"NORMAL","","","LAB1","PLASMA","","Y",200,"Treatment Period 2 Day 0","Treatment Period 2","2013-12-27T17:29",10
"STUDY-01","LB","STUDY-01-3",157,"PLAT","Platelets","HEMATOLOGY","","458.75","10^9/L","145","400","458.75",458.75,"10^9/L",145,400,"NORMAL","","","LAB1","PLASMA","","Y",200,"Treatment Period 2 Day 0","Treatment Period 2","2013-12-27T17:29",10
"STUDY-01","LB","STUDY-01-3",158,"PLATMRPH","Platelet Morphology","HEMATOLOGY","","PLATELETS: PLATELET MORPHOLOGY NORMAL","","","","PLATELETS: PLATELET MORPHOLOGY NORMAL",NA,"",NA,NA,"NA","","","LAB1","PLASMA","","Y",200,"Treatment Period 2 Day 0","Treatment Period 2","2013-12-27T17:29",10
"STUDY-01","LB","STUDY-01-3",159,"RBC","Erythrocytes","HEMATOLOGY","","5.4625","10^12/L","4.20","5.70","5.4625",5.4625,"10^12/L",4.2,5.7,"NORMAL","","","LAB1","PLASMA","","Y",200,"Treatment Period 2 Day 0","Treatment Period 2","2013-12-27T17:29",10
"STUDY-01","LB","STUDY-01-3",160,"RBCMORPH","Erythrocyte Cell Morphology","HEMATOLOGY","DIFFERENTIALS","RBC'S: RED CELLS APPEAR NORMAL","","","","RBC'S: RED CELLS APPEAR NORMAL",NA,"",NA,NA,"NA","","","LAB1","PLASMA","","Y",200,"Treatment Period 2 Day 0","Treatment Period 2","2013-12-27T17:29",10
"STUDY-01","LB","STUDY-01-3",161,"SODIUM","Sodium","CHEMISTRY","ELECTROLYTES","172.5","mmol/L","135","145","172.5",172.5,"mmol/L",135,145,"NORMAL","","","LAB1","SERUM","","Y",200,"Treatment Period 2 Day 0","Treatment Period 2","2013-12-27T17:29",10
"STUDY-01","LB","STUDY-01-3",162,"UREA","Urea","CHEMISTRY","RENAL FUNCTION","9.125","mmol/L","2.5","8.1","9.125",9.125,"mmol/L",2.5,8.1,"NORMAL","","","LAB1","SERUM","","Y",200,"Treatment Period 2 Day 0","Treatment Period 2","2013-12-27T17:29",10
"STUDY-01","LB","STUDY-01-3",163,"WBC","Leukocytes","HEMATOLOGY","","14.375","10^9/L","4.0","11.0","14.375",14.375,"10^9/L",4,11,"HIGH","","","LAB1","PLASMA","","Y",200,"Treatment Period 2 Day 0","Treatment Period 2","2013-12-27T17:29",10
"STUDY-01","LB","STUDY-01-3",164,"WBCMORPH","Leukocyte Cell Morphology","HEMATOLOGY","","WBC'S: WBC MORPHOLOGY NORMAL","","","","WBC'S: WBC MORPHOLOGY NORMAL",NA,"",NA,NA,"NA","","","LAB1","PLASMA","","Y",200,"Treatment Period 2 Day 0","Treatment Period 2","2013-12-27T17:29",10
"STUDY-01","LB","STUDY-01-3",165,"BILIU","Bilirubin Urine","URINALYSIS","","NEGATIVE","","","NEGATIVE","NEGATIVE",NA,"",NA,NA,"NORMAL","","","LAB1","URINE","","",240,"Treatment Period 2 Day 4","Treatment Period 2","2013-12-31T08:00",14
"STUDY-01","LB","STUDY-01-3",166,"GLUCU","Glucose Urine","URINALYSIS","","NEGATIVE","mmol/L","","NEGATIVE","NEGATIVE",NA,"mmol/L",NA,NA,"NORMAL","","","LAB1","URINE","","",240,"Treatment Period 2 Day 4","Treatment Period 2","2013-12-31T08:00",14
"STUDY-01","LB","STUDY-01-3",167,"KETONES","Ketones","URINALYSIS","","NEGATIVE","mmol/L","","NEGATIVE","NEGATIVE",NA,"mmol/L",NA,NA,"NORMAL","","","LAB1","URINE","","",240,"Treatment Period 2 Day 4","Treatment Period 2","2013-12-31T08:00",14
"STUDY-01","LB","STUDY-01-3",168,"LEUKASE","Leukocyte Esterase","URINALYSIS","","NEGATIVE","","","NEGATIVE","NEGATIVE",NA,"",NA,NA,"NORMAL","","","LAB1","URINE","","",240,"Treatment Period 2 Day 4","Treatment Period 2","2013-12-31T08:00",14
"STUDY-01","LB","STUDY-01-3",169,"NITRITE","Nitrite","URINALYSIS","","NEGATIVE","","","NEGATIVE","NEGATIVE",NA,"",NA,NA,"NORMAL","","","LAB1","URINE","","",240,"Treatment Period 2 Day 4","Treatment Period 2","2013-12-31T08:00",14
"STUDY-01","LB","STUDY-01-3",170,"OCCBLD","Occult Blood","URINALYSIS","","NEGATIVE","","","NEGATIVE","NEGATIVE",NA,"",NA,NA,"NORMAL","","","LAB1","URINE","","",240,"Treatment Period 2 Day 4","Treatment Period 2","2013-12-31T08:00",14
"STUDY-01","LB","STUDY-01-3",171,"PH","pH","URINALYSIS","","6.875","","5.0","8.0","6.875",6.875,"",5,8,"NORMAL","","","LAB1","URINE","","",240,"Treatment Period 2 Day 4","Treatment Period 2","2013-12-31T08:00",14
"STUDY-01","LB","STUDY-01-3",172,"PROTU","Protein Urine","URINALYSIS","","NEGATIVE","g/L","","<0.3","NEGATIVE",NA,"g/L",NA,0.3,"NORMAL","","","LAB1","URINE","","",240,"Treatment Period 2 Day 4","Treatment Period 2","2013-12-31T08:00",14
"STUDY-01","LB","STUDY-01-3",173,"SPGRAV","Specific Gravity","URINALYSIS","","1.26625","","1.005","1.030","1.26625",1.26625,"",1.005,1.03,"NORMAL","","","LAB1","URINE","","",240,"Treatment Period 2 Day 4","Treatment Period 2","2013-12-31T08:00",14
"STUDY-01","LB","STUDY-01-3",174,"UROBIL","Urobilinogen","URINALYSIS","","4","umol/L","3.2","16.0","4",4,"umol/L",3.2,16,"NORMAL","","","LAB1","URINE","","",240,"Treatment Period 2 Day 4","Treatment Period 2","2013-12-31T08:00",14
"STUDY-01","LB","STUDY-01-3",175,"ALB","Albumin","CHEMISTRY","LIVER FUNCTION","58.75","g/L","35","52","58.75",58.75,"g/L",35,52,"NORMAL","","","LAB1","SERUM","","",240,"Treatment Period 2 Day 4","Treatment Period 2","2013-12-31T09:10",14
"STUDY-01","LB","STUDY-01-3",176,"ALT","Alanine Aminotransferase","CHEMISTRY","LIVER FUNCTION","32.5","U/L","","<46","32.5",32.5,"U/L",NA,46,"NORMAL","","","LAB1","SERUM","","",240,"Treatment Period 2 Day 4","Treatment Period 2","2013-12-31T09:10",14
"STUDY-01","LB","STUDY-01-3",177,"AMYLASE","Amylase","CHEMISTRY","LIVER FUNCTION","126.25","U/L","30","110","126.25",126.25,"U/L",30,110,"NORMAL","","","LAB1","SERUM","","",240,"Treatment Period 2 Day 4","Treatment Period 2","2013-12-31T09:10",14
"STUDY-01","LB","STUDY-01-3",178,"AST","Aspartate Aminotransferase","CHEMISTRY","LIVER FUNCTION","27.5","U/L","","<37","27.5",27.5,"U/L",NA,37,"NORMAL","","","LAB1","SERUM","","",240,"Treatment Period 2 Day 4","Treatment Period 2","2013-12-31T09:10",14
"STUDY-01","LB","STUDY-01-3",179,"BASO","Basophils","HEMATOLOGY","DIFFERENTIALS","0.125","10^9/L","0.00","0.20","0.125",0.125,"10^9/L",0,0.2,"NORMAL","","","LAB1","PLASMA","","",240,"Treatment Period 2 Day 4","Treatment Period 2","2013-12-31T09:10",14
"STUDY-01","LB","STUDY-01-3",180,"BILI","Bilirubin","CHEMISTRY","LIVER FUNCTION","8.75","umol/L","","<23","8.75",8.75,"umol/L",NA,23,"NORMAL","","","LAB1","SERUM","","",240,"Treatment Period 2 Day 4","Treatment Period 2","2013-12-31T09:10",14
"STUDY-01","LB","STUDY-01-3",181,"CA","Calcium","CHEMISTRY","ELECTROLYTES","3.0625","mmol/l","2.20","2.65","3.0625",3.0625,"mmol/l",2.2,2.65,"NORMAL","","","LAB1","SERUM","","",240,"Treatment Period 2 Day 4","Treatment Period 2","2013-12-31T09:10",14
"STUDY-01","LB","STUDY-01-3",182,"CL","Chloride","CHEMISTRY","ELECTROLYTES","122.5","mmol/L","95","108","122.5",122.5,"mmol/L",95,108,"NORMAL","","","LAB1","SERUM","","",240,"Treatment Period 2 Day 4","Treatment Period 2","2013-12-31T09:10",14
"STUDY-01","LB","STUDY-01-3",183,"CREAT","Creatinine","CHEMISTRY","RENAL FUNCTION","123.75","umol/L","60","110","123.75",123.75,"umol/L",60,110,"NORMAL","","","LAB1","SERUM","","",240,"Treatment Period 2 Day 4","Treatment Period 2","2013-12-31T09:10",14
"STUDY-01","LB","STUDY-01-3",184,"EOS","Eosinophils","HEMATOLOGY","DIFFERENTIALS","0.475","10^9/L","0.00","0.40","0.475",0.475,"10^9/L",0,0.4,"NORMAL","","","LAB1","PLASMA","","",240,"Treatment Period 2 Day 4","Treatment Period 2","2013-12-31T09:10",14
"STUDY-01","LB","STUDY-01-3",185,"GLUC","Glucose","CHEMISTRY","","7.125","mmol/L","3.6","7.0","7.125",7.125,"mmol/L",3.6,7,"NORMAL","","","LAB1","SERUM","","",240,"Treatment Period 2 Day 4","Treatment Period 2","2013-12-31T09:10",14
"STUDY-01","LB","STUDY-01-3",186,"HCT","Hematocrit","HEMATOLOGY","","53.75","%","38","49","53.75",53.75,"%",38,49,"NORMAL","","","LAB1","PLASMA","","",240,"Treatment Period 2 Day 4","Treatment Period 2","2013-12-31T09:10",14
"STUDY-01","LB","STUDY-01-3",187,"HGB","Hemoglobin","HEMATOLOGY","","176.25","g/L","135","170","176.25",176.25,"g/L",135,170,"NORMAL","","","LAB1","PLASMA","","",240,"Treatment Period 2 Day 4","Treatment Period 2","2013-12-31T09:10",14
"STUDY-01","LB","STUDY-01-3",188,"K","Potassium","CHEMISTRY","ELECTROLYTES","6","mmol/L","3.3","5.1","6",6,"mmol/L",3.3,5.1,"NORMAL","","","LAB1","SERUM","","",240,"Treatment Period 2 Day 4","Treatment Period 2","2013-12-31T09:10",14
"STUDY-01","LB","STUDY-01-3",189,"LYM","Lymphocytes","HEMATOLOGY","DIFFERENTIALS","3","10^9/L","1.00","3.20","3",3,"10^9/L",1,3.2,"NORMAL","","","LAB1","PLASMA","","",240,"Treatment Period 2 Day 4","Treatment Period 2","2013-12-31T09:10",14
"STUDY-01","LB","STUDY-01-3",190,"MONO","Monocytes","HEMATOLOGY","DIFFERENTIALS","0.725","10^9/L","0.00","0.80","0.725",0.725,"10^9/L",0,0.8,"NORMAL","","","LAB1","PLASMA","","",240,"Treatment Period 2 Day 4","Treatment Period 2","2013-12-31T09:10",14
"STUDY-01","LB","STUDY-01-3",191,"NEUT","Neutrophils","HEMATOLOGY","DIFFERENTIALS","7.675","10^9/L","1.80","7.00","7.675",7.675,"10^9/L",1.8,7,"NORMAL","","","LAB1","PLASMA","","",240,"Treatment Period 2 Day 4","Treatment Period 2","2013-12-31T09:10",14
"STUDY-01","LB","STUDY-01-3",192,"PLAT","Platelets","HEMATOLOGY","","390","10^9/L","145","400","390",390,"10^9/L",145,400,"NORMAL","","","LAB1","PLASMA","","",240,"Treatment Period 2 Day 4","Treatment Period 2","2013-12-31T09:10",14
"STUDY-01","LB","STUDY-01-3",193,"PLATMRPH","Platelet Morphology","HEMATOLOGY","","PLATELETS: PLATELET MORPHOLOGY NORMAL","","","","PLATELETS: PLATELET MORPHOLOGY NORMAL",NA,"",NA,NA,"NA","","","LAB1","PLASMA","","",240,"Treatment Period 2 Day 4","Treatment Period 2","2013-12-31T09:10",14
"STUDY-01","LB","STUDY-01-3",194,"RBC","Erythrocytes","HEMATOLOGY","","5.575","10^12/L","4.20","5.70","5.575",5.575,"10^12/L",4.2,5.7,"NORMAL","","","LAB1","PLASMA","","",240,"Treatment Period 2 Day 4","Treatment Period 2","2013-12-31T09:10",14
"STUDY-01","LB","STUDY-01-3",195,"RBCMORPH","Erythrocyte Cell Morphology","HEMATOLOGY","DIFFERENTIALS","RBC'S: RED CELLS APPEAR NORMAL","","","","RBC'S: RED CELLS APPEAR NORMAL",NA,"",NA,NA,"NA","","","LAB1","PLASMA","","",240,"Treatment Period 2 Day 4","Treatment Period 2","2013-12-31T09:10",14
"STUDY-01","LB","STUDY-01-3",196,"SODIUM","Sodium","CHEMISTRY","ELECTROLYTES","172.5","mmol/L","135","145","172.5",172.5,"mmol/L",135,145,"NORMAL","","","LAB1","SERUM","","",240,"Treatment Period 2 Day 4","Treatment Period 2","2013-12-31T09:10",14
"STUDY-01","LB","STUDY-01-3",197,"UREA","Urea","CHEMISTRY","RENAL FUNCTION","8.5","mmol/L","2.5","8.1","8.5",8.5,"mmol/L",2.5,8.1,"NORMAL","","","LAB1","SERUM","","",240,"Treatment Period 2 Day 4","Treatment Period 2","2013-12-31T09:10",14
"STUDY-01","LB","STUDY-01-3",198,"WBC","Leukocytes","HEMATOLOGY","","12","10^9/L","4.0","11.0","12",12,"10^9/L",4,11,"NORMAL","","","LAB1","PLASMA","","",240,"Treatment Period 2 Day 4","Treatment Period 2","2013-12-31T09:10",14
"STUDY-01","LB","STUDY-01-3",199,"WBCMORPH","Leukocyte Cell Morphology","HEMATOLOGY","","WBC'S: WBC MORPHOLOGY NORMAL","","","","WBC'S: WBC MORPHOLOGY NORMAL",NA,"",NA,NA,"NA","","","LAB1","PLASMA","","",240,"Treatment Period 2 Day 4","Treatment Period 2","2013-12-31T09:10",14
"STUDY-01","LB","STUDY-01-3",200,"BILIU","Bilirubin Urine","URINALYSIS","","NEGATIVE","","","NEGATIVE","NEGATIVE",NA,"",NA,NA,"NORMAL","","","LAB1","URINE","","",800,"Follow Up/Early Withdrawal","Follow-up","2014-01-03T08:52",17
"STUDY-01","LB","STUDY-01-3",201,"GLUCU","Glucose Urine","URINALYSIS","","NEGATIVE","mmol/L","","NEGATIVE","NEGATIVE",NA,"mmol/L",NA,NA,"NORMAL","","","LAB1","URINE","","",800,"Follow Up/Early Withdrawal","Follow-up","2014-01-03T08:52",17
"STUDY-01","LB","STUDY-01-3",202,"KETONES","Ketones","URINALYSIS","","NEGATIVE","mmol/L","","NEGATIVE","NEGATIVE",NA,"mmol/L",NA,NA,"NORMAL","","","LAB1","URINE","","",800,"Follow Up/Early Withdrawal","Follow-up","2014-01-03T08:52",17
"STUDY-01","LB","STUDY-01-3",203,"LEUKASE","Leukocyte Esterase","URINALYSIS","","NEGATIVE","","","NEGATIVE","NEGATIVE",NA,"",NA,NA,"NORMAL","","","LAB1","URINE","","",800,"Follow Up/Early Withdrawal","Follow-up","2014-01-03T08:52",17
"STUDY-01","LB","STUDY-01-3",204,"NITRITE","Nitrite","URINALYSIS","","NEGATIVE","","","NEGATIVE","NEGATIVE",NA,"",NA,NA,"NORMAL","","","LAB1","URINE","","",800,"Follow Up/Early Withdrawal","Follow-up","2014-01-03T08:52",17
"STUDY-01","LB","STUDY-01-3",205,"OCCBLD","Occult Blood","URINALYSIS","","NEGATIVE","","","NEGATIVE","NEGATIVE",NA,"",NA,NA,"NORMAL","","","LAB1","URINE","","",800,"Follow Up/Early Withdrawal","Follow-up","2014-01-03T08:52",17
"STUDY-01","LB","STUDY-01-3",206,"PH","pH","URINALYSIS","","6.875","","5.0","8.0","6.875",6.875,"",5,8,"NORMAL","","","LAB1","URINE","","",800,"Follow Up/Early Withdrawal","Follow-up","2014-01-03T08:52",17
"STUDY-01","LB","STUDY-01-3",207,"PROTU","Protein Urine","URINALYSIS","","NEGATIVE","g/L","","<0.3","NEGATIVE",NA,"g/L",NA,0.3,"NORMAL","","","LAB1","URINE","","",800,"Follow Up/Early Withdrawal","Follow-up","2014-01-03T08:52",17
"STUDY-01","LB","STUDY-01-3",208,"SPGRAV","Specific Gravity","URINALYSIS","","1.28375","","1.005","1.030","1.28375",1.28375,"",1.005,1.03,"NORMAL","","","LAB1","URINE","","",800,"Follow Up/Early Withdrawal","Follow-up","2014-01-03T08:52",17
"STUDY-01","LB","STUDY-01-3",209,"UROBIL","Urobilinogen","URINALYSIS","","4","umol/L","3.2","16.0","4",4,"umol/L",3.2,16,"NORMAL","","","LAB1","URINE","","",800,"Follow Up/Early Withdrawal","Follow-up","2014-01-03T08:52",17
"STUDY-01","LB","STUDY-01-3",210,"ALB","Albumin","CHEMISTRY","LIVER FUNCTION","56.25","g/L","35","52","56.25",56.25,"g/L",35,52,"NORMAL","","","LAB1","SERUM","","",800,"Follow Up/Early Withdrawal","Follow-up","2014-01-03T09:01",17
"STUDY-01","LB","STUDY-01-3",211,"ALT","Alanine Aminotransferase","CHEMISTRY","LIVER FUNCTION","31.25","U/L","","<46","31.25",31.25,"U/L",NA,46,"NORMAL","","","LAB1","SERUM","","",800,"Follow Up/Early Withdrawal","Follow-up","2014-01-03T09:01",17
"STUDY-01","LB","STUDY-01-3",212,"AMYLASE","Amylase","CHEMISTRY","LIVER FUNCTION","107.5","U/L","30","110","107.5",107.5,"U/L",30,110,"NORMAL","","","LAB1","SERUM","","",800,"Follow Up/Early Withdrawal","Follow-up","2014-01-03T09:01",17
"STUDY-01","LB","STUDY-01-3",213,"AST","Aspartate Aminotransferase","CHEMISTRY","LIVER FUNCTION","23.75","U/L","","<37","23.75",23.75,"U/L",NA,37,"NORMAL","","","LAB1","SERUM","","",800,"Follow Up/Early Withdrawal","Follow-up","2014-01-03T09:01",17
"STUDY-01","LB","STUDY-01-3",214,"BASO","Basophils","HEMATOLOGY","DIFFERENTIALS","0.1375","10^9/L","0.00","0.20","0.1375",0.1375,"10^9/L",0,0.2,"NORMAL","","","LAB1","PLASMA","","",800,"Follow Up/Early Withdrawal","Follow-up","2014-01-03T09:01",17
"STUDY-01","LB","STUDY-01-3",215,"BILI","Bilirubin","CHEMISTRY","LIVER FUNCTION","8.75","umol/L","","<23","8.75",8.75,"umol/L",NA,23,"NORMAL","","","LAB1","SERUM","","",800,"Follow Up/Early Withdrawal","Follow-up","2014-01-03T09:01",17
"STUDY-01","LB","STUDY-01-3",216,"CA","Calcium","CHEMISTRY","ELECTROLYTES","3.05","mmol/l","2.20","2.65","3.05",3.05,"mmol/l",2.2,2.65,"NORMAL","","","LAB1","SERUM","","",800,"Follow Up/Early Withdrawal","Follow-up","2014-01-03T09:01",17
"STUDY-01","LB","STUDY-01-3",217,"CL","Chloride","CHEMISTRY","ELECTROLYTES","126.25","mmol/L","95","108","126.25",126.25,"mmol/L",95,108,"NORMAL","","","LAB1","SERUM","","",800,"Follow Up/Early Withdrawal","Follow-up","2014-01-03T09:01",17
"STUDY-01","LB","STUDY-01-3",218,"CREAT","Creatinine","CHEMISTRY","RENAL FUNCTION","125","umol/L","60","110","125",125,"umol/L",60,110,"NORMAL","","","LAB1","SERUM","","",800,"Follow Up/Early Withdrawal","Follow-up","2014-01-03T09:01",17
"STUDY-01","LB","STUDY-01-3",219,"EOS","Eosinophils","HEMATOLOGY","DIFFERENTIALS","0.5375","10^9/L","0.00","0.40","0.5375",0.5375,"10^9/L",0,0.4,"HIGH","","","LAB1","PLASMA","","",800,"Follow Up/Early Withdrawal","Follow-up","2014-01-03T09:01",17
"STUDY-01","LB","STUDY-01-3",220,"GLUC","Glucose","CHEMISTRY","","5.75","mmol/L","3.6","7.0","5.75",5.75,"mmol/L",3.6,7,"NORMAL","","","LAB1","SERUM","","",800,"Follow Up/Early Withdrawal","Follow-up","2014-01-03T09:01",17
"STUDY-01","LB","STUDY-01-3",221,"HCT","Hematocrit","HEMATOLOGY","","57.5","%","38","49","57.5",57.5,"%",38,49,"NORMAL","","","LAB1","PLASMA","","",800,"Follow Up/Early Withdrawal","Follow-up","2014-01-03T09:01",17
"STUDY-01","LB","STUDY-01-3",222,"HGB","Hemoglobin","HEMATOLOGY","","186.25","g/L","135","170","186.25",186.25,"g/L",135,170,"NORMAL","","","LAB1","PLASMA","","",800,"Follow Up/Early Withdrawal","Follow-up","2014-01-03T09:01",17
"STUDY-01","LB","STUDY-01-3",223,"K","Potassium","CHEMISTRY","ELECTROLYTES","4.875","mmol/L","3.3","5.1","4.875",4.875,"mmol/L",3.3,5.1,"NORMAL","","","LAB1","SERUM","","",800,"Follow Up/Early Withdrawal","Follow-up","2014-01-03T09:01",17
"STUDY-01","LB","STUDY-01-3",224,"LYM","Lymphocytes","HEMATOLOGY","DIFFERENTIALS","2.8375","10^9/L","1.00","3.20","2.8375",2.8375,"10^9/L",1,3.2,"NORMAL","","","LAB1","PLASMA","","",800,"Follow Up/Early Withdrawal","Follow-up","2014-01-03T09:01",17
"STUDY-01","LB","STUDY-01-3",225,"MONO","Monocytes","HEMATOLOGY","DIFFERENTIALS","1.2125","10^9/L","0.00","0.80","1.2125",1.2125,"10^9/L",0,0.8,"HIGH","","","LAB1","PLASMA","","",800,"Follow Up/Early Withdrawal","Follow-up","2014-01-03T09:01",17
"STUDY-01","LB","STUDY-01-3",226,"NEUT","Neutrophils","HEMATOLOGY","DIFFERENTIALS","8.775","10^9/L","1.80","7.00","8.775",8.775,"10^9/L",1.8,7,"HIGH","","","LAB1","PLASMA","","",800,"Follow Up/Early Withdrawal","Follow-up","2014-01-03T09:01",17
"STUDY-01","LB","STUDY-01-3",227,"PLAT","Platelets","HEMATOLOGY","","461.25","10^9/L","145","400","461.25",461.25,"10^9/L",145,400,"NORMAL","","","LAB1","PLASMA","","",800,"Follow Up/Early Withdrawal","Follow-up","2014-01-03T09:01",17
"STUDY-01","LB","STUDY-01-3",228,"PLATMRPH","Platelet Morphology","HEMATOLOGY","","PLATELETS: PLATELET MORPHOLOGY NORMAL","","","","PLATELETS: PLATELET MORPHOLOGY NORMAL",NA,"",NA,NA,"NA","","","LAB1","PLASMA","","",800,"Follow Up/Early Withdrawal","Follow-up","2014-01-03T09:01",17
"STUDY-01","LB","STUDY-01-3",229,"RBC","Erythrocytes","HEMATOLOGY","","5.9","10^12/L","4.20","5.70","5.9",5.9,"10^12/L",4.2,5.7,"NORMAL","","","LAB1","PLASMA","","",800,"Follow Up/Early Withdrawal","Follow-up","2014-01-03T09:01",17
"STUDY-01","LB","STUDY-01-3",230,"RBCMORPH","Erythrocyte Cell Morphology","HEMATOLOGY","DIFFERENTIALS","RBC'S: RED CELLS APPEAR NORMAL","","","","RBC'S: RED CELLS APPEAR NORMAL",NA,"",NA,NA,"NA","","","LAB1","PLASMA","","",800,"Follow Up/Early Withdrawal","Follow-up","2014-01-03T09:01",17
"STUDY-01","LB","STUDY-01-3",231,"SODIUM","Sodium","CHEMISTRY","ELECTROLYTES","177.5","mmol/L","135","145","177.5",177.5,"mmol/L",135,145,"NORMAL","","","LAB1","SERUM","","",800,"Follow Up/Early Withdrawal","Follow-up","2014-01-03T09:01",17
"STUDY-01","LB","STUDY-01-3",232,"UREA","Urea","CHEMISTRY","RENAL FUNCTION","8.25","mmol/L","2.5","8.1","8.25",8.25,"mmol/L",2.5,8.1,"NORMAL","","","LAB1","SERUM","","",800,"Follow Up/Early Withdrawal","Follow-up","2014-01-03T09:01",17
"STUDY-01","LB","STUDY-01-3",233,"WBC","Leukocytes","HEMATOLOGY","","13.5","10^9/L","4.0","11.0","13.5",13.5,"10^9/L",4,11,"NORMAL","","","LAB1","PLASMA","","",800,"Follow Up/Early Withdrawal","Follow-up","2014-01-03T09:01",17
"STUDY-01","LB","STUDY-01-3",234,"WBCMORPH","Leukocyte Cell Morphology","HEMATOLOGY","","WBC'S: WBC MORPHOLOGY NORMAL","","","","WBC'S: WBC MORPHOLOGY NORMAL",NA,"",NA,NA,"NA","","","LAB1","PLASMA","","",800,"Follow Up/Early Withdrawal","Follow-up","2014-01-03T09:01",17
"STUDY-01","LB","STUDY-01-4",1,"ETHANOL","Ethanol","BREATH ALCOHOL CONCENTRATION","BAC","NEGATIVE","","","NEGATIVE","NEGATIVE",NA,"",NA,NA,"NORMAL","","","LAB2","BREATH","","",1,"Screening Visit","Screening","2013-12-11",-7
"STUDY-01","LB","STUDY-01-4",2,"AMPHET","Amphetamine","URINALYSIS","DRUG SCREEN","NEGATIVE","","NEGATIVE","NEGATIVE","NEGATIVE",NA,"",NA,NA,"NORMAL","","","LAB2","URINE","","",1,"Screening Visit","Screening","2013-12-11T10:35",-7
"STUDY-01","LB","STUDY-01-4",3,"BILIU","Bilirubin Urine","URINALYSIS","","NEGATIVE","","","NEGATIVE","NEGATIVE",NA,"",NA,NA,"NORMAL","","","LAB1","URINE","","",1,"Screening Visit","Screening","2013-12-11T10:35",-7
"STUDY-01","LB","STUDY-01-4",4,"BNZDZPN","Benzodiazepine","URINALYSIS","DRUG SCREEN","NEGATIVE","","NEGATIVE","NEGATIVE","NEGATIVE",NA,"",NA,NA,"NORMAL","","","LAB2","URINE","","",1,"Screening Visit","Screening","2013-12-11T10:35",-7
"STUDY-01","LB","STUDY-01-4",5,"CANNAB","Cannabinoids","URINALYSIS","DRUG SCREEN","NEGATIVE","","NEGATIVE","NEGATIVE","NEGATIVE",NA,"",NA,NA,"NORMAL","","","LAB2","URINE","","",1,"Screening Visit","Screening","2013-12-11T10:35",-7
"STUDY-01","LB","STUDY-01-4",6,"COCAINE","Cocaine","URINALYSIS","DRUG SCREEN","NEGATIVE","","NEGATIVE","NEGATIVE","NEGATIVE",NA,"",NA,NA,"NORMAL","","","LAB2","URINE","","",1,"Screening Visit","Screening","2013-12-11T10:35",-7
"STUDY-01","LB","STUDY-01-4",7,"GLUCU","Glucose Urine","URINALYSIS","","NEGATIVE","mmol/L","","NEGATIVE","NEGATIVE",NA,"mmol/L",NA,NA,"NORMAL","","","LAB1","URINE","","",1,"Screening Visit","Screening","2013-12-11T10:35",-7
"STUDY-01","LB","STUDY-01-4",8,"KETONES","Ketones","URINALYSIS","","NEGATIVE","mmol/L","","NEGATIVE","NEGATIVE",NA,"mmol/L",NA,NA,"NORMAL","","","LAB1","URINE","","",1,"Screening Visit","Screening","2013-12-11T10:35",-7
"STUDY-01","LB","STUDY-01-4",9,"LEUKASE","Leukocyte Esterase","URINALYSIS","","TRACE","","","NEGATIVE","TRACE",NA,"",NA,NA,"ABNORMAL","","","LAB1","URINE","","",1,"Screening Visit","Screening","2013-12-11T10:35",-7
"STUDY-01","LB","STUDY-01-4",10,"NITRITE","Nitrite","URINALYSIS","","NEGATIVE","","","NEGATIVE","NEGATIVE",NA,"",NA,NA,"NORMAL","","","LAB1","URINE","","",1,"Screening Visit","Screening","2013-12-11T10:35",-7
"STUDY-01","LB","STUDY-01-4",11,"OCCBLD","Occult Blood","URINALYSIS","","NEGATIVE","","","NEGATIVE","NEGATIVE",NA,"",NA,NA,"NORMAL","","","LAB1","URINE","","",1,"Screening Visit","Screening","2013-12-11T10:35",-7
"STUDY-01","LB","STUDY-01-4",12,"OPIATE","Opiate","URINALYSIS","DRUG SCREEN","NEGATIVE","","NEGATIVE","NEGATIVE","NEGATIVE",NA,"",NA,NA,"NORMAL","","","LAB2","URINE","","",1,"Screening Visit","Screening","2013-12-11T10:35",-7
"STUDY-01","LB","STUDY-01-4",13,"OXYCDN","Oxycodone","URINALYSIS","DRUG SCREEN","NEGATIVE","","NEGATIVE","NEGATIVE","NEGATIVE",NA,"",NA,NA,"NORMAL","","","LAB2","URINE","","",1,"Screening Visit","Screening","2013-12-11T10:35",-7
"STUDY-01","LB","STUDY-01-4",14,"PH","pH","URINALYSIS","","6.875","","5.0","8.0","6.875",6.875,"",5,8,"NORMAL","","","LAB1","URINE","","",1,"Screening Visit","Screening","2013-12-11T10:35",-7
"STUDY-01","LB","STUDY-01-4",15,"PROTU","Protein Urine","URINALYSIS","","NEGATIVE","g/L","","<0.3","NEGATIVE",NA,"g/L",NA,0.3,"NORMAL","","","LAB1","URINE","","",1,"Screening Visit","Screening","2013-12-11T10:35",-7
"STUDY-01","LB","STUDY-01-4",16,"SPGRAV","Specific Gravity","URINALYSIS","","1.2725","","1.005","1.030","1.2725",1.2725,"",1.005,1.03,"NORMAL","","","LAB1","URINE","","",1,"Screening Visit","Screening","2013-12-11T10:35",-7
"STUDY-01","LB","STUDY-01-4",17,"UROBIL","Urobilinogen","URINALYSIS","","4","umol/L","3.2","16.0","4",4,"umol/L",3.2,16,"NORMAL","","","LAB1","URINE","","",1,"Screening Visit","Screening","2013-12-11T10:35",-7
"STUDY-01","LB","STUDY-01-4",18,"ALB","Albumin","CHEMISTRY","LIVER FUNCTION","57.5","g/L","35","52","57.5",57.5,"g/L",35,52,"NORMAL","","","LAB1","SERUM","","",1,"Screening Visit","Screening","2013-12-11T11:22",-7
"STUDY-01","LB","STUDY-01-4",19,"ALT","Alanine Aminotransferase","CHEMISTRY","LIVER FUNCTION","21.25","U/L","","<36","21.25",21.25,"U/L",NA,36,"NORMAL","","","LAB1","SERUM","","",1,"Screening Visit","Screening","2013-12-11T11:22",-7
"STUDY-01","LB","STUDY-01-4",20,"AMYLASE","Amylase","CHEMISTRY","LIVER FUNCTION","73.75","U/L","30","110","73.75",73.75,"U/L",30,110,"NORMAL","","","LAB1","SERUM","","",1,"Screening Visit","Screening","2013-12-11T11:22",-7
"STUDY-01","LB","STUDY-01-4",21,"AST","Aspartate Aminotransferase","CHEMISTRY","LIVER FUNCTION","26.25","U/L","","<31","26.25",26.25,"U/L",NA,31,"NORMAL","","","LAB1","SERUM","","",1,"Screening Visit","Screening","2013-12-11T11:22",-7
"STUDY-01","LB","STUDY-01-4",22,"BASO","Basophils","HEMATOLOGY","DIFFERENTIALS","0.0625","10^9/L","0.00","0.20","0.0625",0.0625,"10^9/L",0,0.2,"NORMAL","","","LAB1","PLASMA","","",1,"Screening Visit","Screening","2013-12-11T11:22",-7
"STUDY-01","LB","STUDY-01-4",23,"BILI","Bilirubin","CHEMISTRY","LIVER FUNCTION","15","umol/L","","<23","15",15,"umol/L",NA,23,"NORMAL","","","LAB1","SERUM","","",1,"Screening Visit","Screening","2013-12-11T11:22",-7
"STUDY-01","LB","STUDY-01-4",24,"CA","Calcium","CHEMISTRY","ELECTROLYTES","2.9625","mmol/l","2.20","2.65","2.9625",2.9625,"mmol/l",2.2,2.65,"NORMAL","","","LAB1","SERUM","","",1,"Screening Visit","Screening","2013-12-11T11:22",-7
"STUDY-01","LB","STUDY-01-4",25,"CL","Chloride","CHEMISTRY","ELECTROLYTES","128.75","mmol/L","95","108","128.75",128.75,"mmol/L",95,108,"NORMAL","","","LAB1","SERUM","","",1,"Screening Visit","Screening","2013-12-11T11:22",-7
"STUDY-01","LB","STUDY-01-4",26,"CREAT","Creatinine","CHEMISTRY","RENAL FUNCTION","87.5","umol/L","50","100","87.5",87.5,"umol/L",50,100,"NORMAL","","","LAB1","SERUM","","",1,"Screening Visit","Screening","2013-12-11T11:22",-7
"STUDY-01","LB","STUDY-01-4",27,"EOS","Eosinophils","HEMATOLOGY","DIFFERENTIALS","0.125","10^9/L","0.00","0.40","0.125",0.125,"10^9/L",0,0.4,"NORMAL","","","LAB1","PLASMA","","",1,"Screening Visit","Screening","2013-12-11T11:22",-7
"STUDY-01","LB","STUDY-01-4",28,"GLUC","Glucose","CHEMISTRY","","6.25","mmol/L","3.6","7.0","6.25",6.25,"mmol/L",3.6,7,"NORMAL","","","LAB1","SERUM","","",1,"Screening Visit","Screening","2013-12-11T11:22",-7
"STUDY-01","LB","STUDY-01-4",29,"HBSAG","Hepatitis B Virus Surface Antigen","CHEMISTRY","SEROLOGY","NEGATIVE","","","NEGATIVE","NEGATIVE",NA,"",NA,NA,"NORMAL","","","LAB1","SERUM","","Y",1,"Screening Visit","Screening","2013-12-11T11:22",-7
"STUDY-01","LB","STUDY-01-4",30,"HCAB","Hepatitis C Virus Antibody","CHEMISTRY","SEROLOGY","NEGATIVE","","","NEGATIVE","NEGATIVE",NA,"",NA,NA,"NORMAL","","","LAB1","SERUM","","Y",1,"Screening Visit","Screening","2013-12-11T11:22",-7
"STUDY-01","LB","STUDY-01-4",31,"HCG","Beta-Human Chorionic Gonadotropin","CHEMISTRY","HORMONES","<1","IU/L","","<5","<1",NA,"IU/L",NA,5,"NORMAL","","","LAB1","SERUM","","Y",1,"Screening Visit","Screening","2013-12-11T11:22",-7
"STUDY-01","LB","STUDY-01-4",32,"HCT","Hematocrit","HEMATOLOGY","","42.5","%","33","45","42.5",42.5,"%",33,45,"NORMAL","","","LAB1","PLASMA","","",1,"Screening Visit","Screening","2013-12-11T11:22",-7
"STUDY-01","LB","STUDY-01-4",33,"HGB","Hemoglobin","HEMATOLOGY","","140","g/L","115","155","140",140,"g/L",115,155,"LOW","","","LAB1","PLASMA","","",1,"Screening Visit","Screening","2013-12-11T11:22",-7
"STUDY-01","LB","STUDY-01-4",34,"HIV12AB","HIV-1/2 Antibody","CHEMISTRY","SEROLOGY","NON-REACTIVE","","","NON-REACTIVE","NON-REACTIVE",NA,"",NA,NA,"NORMAL","","","LAB1","SERUM","","Y",1,"Screening Visit","Screening","2013-12-11T11:22",-7
"STUDY-01","LB","STUDY-01-4",35,"K","Potassium","CHEMISTRY","ELECTROLYTES","5","mmol/L","3.3","5.1","5",5,"mmol/L",3.3,5.1,"NORMAL","","","LAB1","SERUM","","",1,"Screening Visit","Screening","2013-12-11T11:22",-7
"STUDY-01","LB","STUDY-01-4",36,"LYM","Lymphocytes","HEMATOLOGY","DIFFERENTIALS","2.575","10^9/L","1.00","3.20","2.575",2.575,"10^9/L",1,3.2,"NORMAL","","","LAB1","PLASMA","","",1,"Screening Visit","Screening","2013-12-11T11:22",-7
"STUDY-01","LB","STUDY-01-4",37,"MONO","Monocytes","HEMATOLOGY","DIFFERENTIALS","0.425","10^9/L","0.00","0.80","0.425",0.425,"10^9/L",0,0.8,"NORMAL","","","LAB1","PLASMA","","",1,"Screening Visit","Screening","2013-12-11T11:22",-7
"STUDY-01","LB","STUDY-01-4",38,"NEUT","Neutrophils","HEMATOLOGY","DIFFERENTIALS","2.9375","10^9/L","1.80","7.00","2.9375",2.9375,"10^9/L",1.8,7,"NORMAL","","","LAB1","PLASMA","","",1,"Screening Visit","Screening","2013-12-11T11:22",-7
"STUDY-01","LB","STUDY-01-4",39,"PLAT","Platelets","HEMATOLOGY","","296.25","10^9/L","145","400","296.25",296.25,"10^9/L",145,400,"NORMAL","","","LAB1","PLASMA","","",1,"Screening Visit","Screening","2013-12-11T11:22",-7
"STUDY-01","LB","STUDY-01-4",40,"PLATMRPH","Platelet Morphology","HEMATOLOGY","","PLATELETS: PLATELET MORPHOLOGY NORMAL","","","","PLATELETS: PLATELET MORPHOLOGY NORMAL",NA,"",NA,NA,"NA","","","LAB1","PLASMA","","",1,"Screening Visit","Screening","2013-12-11T11:22",-7
"STUDY-01","LB","STUDY-01-4",41,"RBC","Erythrocytes","HEMATOLOGY","","5.0375","10^12/L","3.60","5.01","5.0375",5.0375,"10^12/L",3.6,5.01,"NORMAL","","","LAB1","PLASMA","","",1,"Screening Visit","Screening","2013-12-11T11:22",-7
"STUDY-01","LB","STUDY-01-4",42,"RBCMORPH","Erythrocyte Cell Morphology","HEMATOLOGY","DIFFERENTIALS","RBC'S: RED CELLS APPEAR NORMOCHROMIC OVALOCYTES - FEW","","","","RBC'S: RED CELLS APPEAR NORMOCHROMIC OVALOCYTES - FEW",NA,"",NA,NA,"NA","","","LAB1","PLASMA","","",1,"Screening Visit","Screening","2013-12-11T11:22",-7
"STUDY-01","LB","STUDY-01-4",43,"SODIUM","Sodium","CHEMISTRY","ELECTROLYTES","175","mmol/L","135","145","175",175,"mmol/L",135,145,"NORMAL","","","LAB1","SERUM","","",1,"Screening Visit","Screening","2013-12-11T11:22",-7
"STUDY-01","LB","STUDY-01-4",44,"UREA","Urea","CHEMISTRY","RENAL FUNCTION","5.5","mmol/L","2.5","8.1","5.5",5.5,"mmol/L",2.5,8.1,"NORMAL","","","LAB1","SERUM","","",1,"Screening Visit","Screening","2013-12-11T11:22",-7
"STUDY-01","LB","STUDY-01-4",45,"WBC","Leukocytes","HEMATOLOGY","","6.125","10^9/L","4.0","11.0","6.125",6.125,"10^9/L",4,11,"NORMAL","","","LAB1","PLASMA","","",1,"Screening Visit","Screening","2013-12-11T11:22",-7
"STUDY-01","LB","STUDY-01-4",46,"WBCMORPH","Leukocyte Cell Morphology","HEMATOLOGY","","WBC'S: WBC MORPHOLOGY NORMAL","","","","WBC'S: WBC MORPHOLOGY NORMAL",NA,"",NA,NA,"NA","","","LAB1","PLASMA","","",1,"Screening Visit","Screening","2013-12-11T11:22",-7
"STUDY-01","LB","STUDY-01-4",47,"ETHANOL","Ethanol","BREATH ALCOHOL CONCENTRATION","BAC","NEGATIVE","","","NEGATIVE","NEGATIVE",NA,"",NA,NA,"NORMAL","","","LAB2","BREATH","","Y",100,"Treatment Period 1 Day 0","Treatment Period 1","2013-12-17",-1
"STUDY-01","LB","STUDY-01-4",48,"HCGU","Choriogonadotropin Beta Urine","URINALYSIS","HORMONES","NEGATIVE","","NEGATIVE","NEGATIVE","NEGATIVE",NA,"",NA,NA,"NORMAL","","","LAB2","URINE","","Y",100,"Treatment Period 1 Day 0","Treatment Period 1","2013-12-17",-1
"STUDY-01","LB","STUDY-01-4",49,"AMPHET","Amphetamine","URINALYSIS","DRUG SCREEN","NEGATIVE","","NEGATIVE","NEGATIVE","NEGATIVE",NA,"",NA,NA,"NORMAL","","","LAB2","URINE","","Y",100,"Treatment Period 1 Day 0","Treatment Period 1","2013-12-17T16:10",-1
"STUDY-01","LB","STUDY-01-4",50,"BILIU","Bilirubin Urine","URINALYSIS","","NEGATIVE","","","NEGATIVE","NEGATIVE",NA,"",NA,NA,"NORMAL","","","LAB1","URINE","","Y",100,"Treatment Period 1 Day 0","Treatment Period 1","2013-12-17T16:10",-1
"STUDY-01","LB","STUDY-01-4",51,"BNZDZPN","Benzodiazepine","URINALYSIS","DRUG SCREEN","NEGATIVE","","NEGATIVE","NEGATIVE","NEGATIVE",NA,"",NA,NA,"NORMAL","","","LAB2","URINE","","Y",100,"Treatment Period 1 Day 0","Treatment Period 1","2013-12-17T16:10",-1
"STUDY-01","LB","STUDY-01-4",52,"CANNAB","Cannabinoids","URINALYSIS","DRUG SCREEN","NEGATIVE","","NEGATIVE","NEGATIVE","NEGATIVE",NA,"",NA,NA,"NORMAL","","","LAB2","URINE","","Y",100,"Treatment Period 1 Day 0","Treatment Period 1","2013-12-17T16:10",-1
"STUDY-01","LB","STUDY-01-4",53,"COCAINE","Cocaine","URINALYSIS","DRUG SCREEN","NEGATIVE","","NEGATIVE","NEGATIVE","NEGATIVE",NA,"",NA,NA,"NORMAL","","","LAB2","URINE","","Y",100,"Treatment Period 1 Day 0","Treatment Period 1","2013-12-17T16:10",-1
"STUDY-01","LB","STUDY-01-4",54,"GLUCU","Glucose Urine","URINALYSIS","","NEGATIVE","mmol/L","","NEGATIVE","NEGATIVE",NA,"mmol/L",NA,NA,"NORMAL","","","LAB1","URINE","","Y",100,"Treatment Period 1 Day 0","Treatment Period 1","2013-12-17T16:10",-1
"STUDY-01","LB","STUDY-01-4",55,"KETONES","Ketones","URINALYSIS","","NEGATIVE","mmol/L","","NEGATIVE","NEGATIVE",NA,"mmol/L",NA,NA,"NORMAL","","","LAB1","URINE","","Y",100,"Treatment Period 1 Day 0","Treatment Period 1","2013-12-17T16:10",-1
"STUDY-01","LB","STUDY-01-4",56,"LEUKASE","Leukocyte Esterase","URINALYSIS","","NEGATIVE","","","NEGATIVE","NEGATIVE",NA,"",NA,NA,"NORMAL","","","LAB1","URINE","","Y",100,"Treatment Period 1 Day 0","Treatment Period 1","2013-12-17T16:10",-1
"STUDY-01","LB","STUDY-01-4",57,"NITRITE","Nitrite","URINALYSIS","","NEGATIVE","","","NEGATIVE","NEGATIVE",NA,"",NA,NA,"NORMAL","","","LAB1","URINE","","Y",100,"Treatment Period 1 Day 0","Treatment Period 1","2013-12-17T16:10",-1
"STUDY-01","LB","STUDY-01-4",58,"OCCBLD","Occult Blood","URINALYSIS","","NEGATIVE","","","NEGATIVE","NEGATIVE",NA,"",NA,NA,"NORMAL","","","LAB1","URINE","","Y",100,"Treatment Period 1 Day 0","Treatment Period 1","2013-12-17T16:10",-1
"STUDY-01","LB","STUDY-01-4",59,"OPIATE","Opiate","URINALYSIS","DRUG SCREEN","NEGATIVE","","NEGATIVE","NEGATIVE","NEGATIVE",NA,"",NA,NA,"NORMAL","","","LAB2","URINE","","Y",100,"Treatment Period 1 Day 0","Treatment Period 1","2013-12-17T16:10",-1
"STUDY-01","LB","STUDY-01-4",60,"OXYCDN","Oxycodone","URINALYSIS","DRUG SCREEN","NEGATIVE","","NEGATIVE","NEGATIVE","NEGATIVE",NA,"",NA,NA,"NORMAL","","","LAB2","URINE","","Y",100,"Treatment Period 1 Day 0","Treatment Period 1","2013-12-17T16:10",-1
"STUDY-01","LB","STUDY-01-4",61,"PH","pH","URINALYSIS","","7.5","","5.0","8.0","7.5",7.5,"",5,8,"NORMAL","","","LAB1","URINE","","Y",100,"Treatment Period 1 Day 0","Treatment Period 1","2013-12-17T16:10",-1
"STUDY-01","LB","STUDY-01-4",62,"PROTU","Protein Urine","URINALYSIS","","NEGATIVE","g/L","","<0.3","NEGATIVE",NA,"g/L",NA,0.3,"NORMAL","","","LAB1","URINE","","Y",100,"Treatment Period 1 Day 0","Treatment Period 1","2013-12-17T16:10",-1
"STUDY-01","LB","STUDY-01-4",63,"SPGRAV","Specific Gravity","URINALYSIS","","1.28125","","1.005","1.030","1.28125",1.28125,"",1.005,1.03,"NORMAL","","","LAB1","URINE","","Y",100,"Treatment Period 1 Day 0","Treatment Period 1","2013-12-17T16:10",-1
"STUDY-01","LB","STUDY-01-4",64,"UROBIL","Urobilinogen","URINALYSIS","","4","umol/L","3.2","16.0","4",4,"umol/L",3.2,16,"NORMAL","","","LAB1","URINE","","Y",100,"Treatment Period 1 Day 0","Treatment Period 1","2013-12-17T16:10",-1
"STUDY-01","LB","STUDY-01-4",65,"ALB","Albumin","CHEMISTRY","LIVER FUNCTION","56.25","g/L","35","52","56.25",56.25,"g/L",35,52,"NORMAL","","","LAB1","SERUM","","Y",100,"Treatment Period 1 Day 0","Treatment Period 1","2013-12-17T17:47",-1
"STUDY-01","LB","STUDY-01-4",66,"ALT","Alanine Aminotransferase","CHEMISTRY","LIVER FUNCTION","22.5","U/L","","<36","22.5",22.5,"U/L",NA,36,"NORMAL","","","LAB1","SERUM","","Y",100,"Treatment Period 1 Day 0","Treatment Period 1","2013-12-17T17:47",-1
"STUDY-01","LB","STUDY-01-4",67,"AMYLASE","Amylase","CHEMISTRY","LIVER FUNCTION","71.25","U/L","30","110","71.25",71.25,"U/L",30,110,"NORMAL","","","LAB1","SERUM","","Y",100,"Treatment Period 1 Day 0","Treatment Period 1","2013-12-17T17:47",-1
"STUDY-01","LB","STUDY-01-4",68,"AST","Aspartate Aminotransferase","CHEMISTRY","LIVER FUNCTION","22.5","U/L","","<31","22.5",22.5,"U/L",NA,31,"NORMAL","","","LAB1","SERUM","","Y",100,"Treatment Period 1 Day 0","Treatment Period 1","2013-12-17T17:47",-1
"STUDY-01","LB","STUDY-01-4",69,"BASO","Basophils","HEMATOLOGY","DIFFERENTIALS","0","10^9/L","0.00","0.20","0",0,"10^9/L",0,0.2,"NORMAL","","","LAB1","PLASMA","","Y",100,"Treatment Period 1 Day 0","Treatment Period 1","2013-12-17T17:47",-1
"STUDY-01","LB","STUDY-01-4",70,"BILI","Bilirubin","CHEMISTRY","LIVER FUNCTION","6.25","umol/L","","<23","6.25",6.25,"umol/L",NA,23,"NORMAL","","","LAB1","SERUM","","Y",100,"Treatment Period 1 Day 0","Treatment Period 1","2013-12-17T17:47",-1
"STUDY-01","LB","STUDY-01-4",71,"CA","Calcium","CHEMISTRY","ELECTROLYTES","3","mmol/l","2.20","2.65","3",3,"mmol/l",2.2,2.65,"NORMAL","","","LAB1","SERUM","","Y",100,"Treatment Period 1 Day 0","Treatment Period 1","2013-12-17T17:47",-1
"STUDY-01","LB","STUDY-01-4",72,"CL","Chloride","CHEMISTRY","ELECTROLYTES","130","mmol/L","95","108","130",130,"mmol/L",95,108,"NORMAL","","","LAB1","SERUM","","Y",100,"Treatment Period 1 Day 0","Treatment Period 1","2013-12-17T17:47",-1
"STUDY-01","LB","STUDY-01-4",73,"CREAT","Creatinine","CHEMISTRY","RENAL FUNCTION","86.25","umol/L","50","100","86.25",86.25,"umol/L",50,100,"NORMAL","","","LAB1","SERUM","","Y",100,"Treatment Period 1 Day 0","Treatment Period 1","2013-12-17T17:47",-1
"STUDY-01","LB","STUDY-01-4",74,"EOS","Eosinophils","HEMATOLOGY","DIFFERENTIALS","0.175","10^9/L","0.00","0.40","0.175",0.175,"10^9/L",0,0.4,"NORMAL","","","LAB1","PLASMA","","Y",100,"Treatment Period 1 Day 0","Treatment Period 1","2013-12-17T17:47",-1
"STUDY-01","LB","STUDY-01-4",75,"GLUC","Glucose","CHEMISTRY","","6.375","mmol/L","3.6","7.0","6.375",6.375,"mmol/L",3.6,7,"NORMAL","","","LAB1","SERUM","","Y",100,"Treatment Period 1 Day 0","Treatment Period 1","2013-12-17T17:47",-1
"STUDY-01","LB","STUDY-01-4",76,"HCT","Hematocrit","HEMATOLOGY","","40","%","33","45","40",40,"%",33,45,"LOW","","","LAB1","PLASMA","","Y",100,"Treatment Period 1 Day 0","Treatment Period 1","2013-12-17T17:47",-1
"STUDY-01","LB","STUDY-01-4",77,"HGB","Hemoglobin","HEMATOLOGY","","131.25","g/L","115","155","131.25",131.25,"g/L",115,155,"LOW","","","LAB1","PLASMA","","Y",100,"Treatment Period 1 Day 0","Treatment Period 1","2013-12-17T17:47",-1
"STUDY-01","LB","STUDY-01-4",78,"K","Potassium","CHEMISTRY","ELECTROLYTES","5.75","mmol/L","3.3","5.1","5.75",5.75,"mmol/L",3.3,5.1,"NORMAL","","","LAB1","SERUM","","Y",100,"Treatment Period 1 Day 0","Treatment Period 1","2013-12-17T17:47",-1
"STUDY-01","LB","STUDY-01-4",79,"LYM","Lymphocytes","HEMATOLOGY","DIFFERENTIALS","3.3625","10^9/L","1.00","3.20","3.3625",3.3625,"10^9/L",1,3.2,"NORMAL","","","LAB1","PLASMA","","Y",100,"Treatment Period 1 Day 0","Treatment Period 1","2013-12-17T17:47",-1
"STUDY-01","LB","STUDY-01-4",80,"MONO","Monocytes","HEMATOLOGY","DIFFERENTIALS","0.775","10^9/L","0.00","0.80","0.775",0.775,"10^9/L",0,0.8,"NORMAL","","","LAB1","PLASMA","","Y",100,"Treatment Period 1 Day 0","Treatment Period 1","2013-12-17T17:47",-1
"STUDY-01","LB","STUDY-01-4",81,"NEUT","Neutrophils","HEMATOLOGY","DIFFERENTIALS","4.3125","10^9/L","1.80","7.00","4.3125",4.3125,"10^9/L",1.8,7,"NORMAL","","","LAB1","PLASMA","","Y",100,"Treatment Period 1 Day 0","Treatment Period 1","2013-12-17T17:47",-1
"STUDY-01","LB","STUDY-01-4",82,"PLAT","Platelets","HEMATOLOGY","","293.75","10^9/L","145","400","293.75",293.75,"10^9/L",145,400,"NORMAL","","","LAB1","PLASMA","","Y",100,"Treatment Period 1 Day 0","Treatment Period 1","2013-12-17T17:47",-1
"STUDY-01","LB","STUDY-01-4",83,"PLATMRPH","Platelet Morphology","HEMATOLOGY","","PLATELETS: PLATELET MORPHOLOGY NORMAL","","","","PLATELETS: PLATELET MORPHOLOGY NORMAL",NA,"",NA,NA,"NA","","","LAB1","PLASMA","","Y",100,"Treatment Period 1 Day 0","Treatment Period 1","2013-12-17T17:47",-1
"STUDY-01","LB","STUDY-01-4",84,"RBC","Erythrocytes","HEMATOLOGY","","4.65","10^12/L","3.60","5.01","4.65",4.65,"10^12/L",3.6,5.01,"NORMAL","","","LAB1","PLASMA","","Y",100,"Treatment Period 1 Day 0","Treatment Period 1","2013-12-17T17:47",-1
"STUDY-01","LB","STUDY-01-4",85,"RBCMORPH","Erythrocyte Cell Morphology","HEMATOLOGY","DIFFERENTIALS","RBC'S: OVALOCYTES - FEW RED CELLS APPEAR NORMOCHROMIC","","","","RBC'S: OVALOCYTES - FEW RED CELLS APPEAR NORMOCHROMIC",NA,"",NA,NA,"NA","","","LAB1","PLASMA","","Y",100,"Treatment Period 1 Day 0","Treatment Period 1","2013-12-17T17:47",-1
"STUDY-01","LB","STUDY-01-4",86,"SODIUM","Sodium","CHEMISTRY","ELECTROLYTES","172.5","mmol/L","135","145","172.5",172.5,"mmol/L",135,145,"NORMAL","","","LAB1","SERUM","","Y",100,"Treatment Period 1 Day 0","Treatment Period 1","2013-12-17T17:47",-1
"STUDY-01","LB","STUDY-01-4",87,"UREA","Urea","CHEMISTRY","RENAL FUNCTION","5.75","mmol/L","2.5","8.1","5.75",5.75,"mmol/L",2.5,8.1,"NORMAL","","","LAB1","SERUM","","Y",100,"Treatment Period 1 Day 0","Treatment Period 1","2013-12-17T17:47",-1
"STUDY-01","LB","STUDY-01-4",88,"WBC","Leukocytes","HEMATOLOGY","","8.625","10^9/L","4.0","11.0","8.625",8.625,"10^9/L",4,11,"NORMAL","","","LAB1","PLASMA","","Y",100,"Treatment Period 1 Day 0","Treatment Period 1","2013-12-17T17:47",-1
"STUDY-01","LB","STUDY-01-4",89,"WBCMORPH","Leukocyte Cell Morphology","HEMATOLOGY","","WBC'S: WBC MORPHOLOGY NORMAL","","","","WBC'S: WBC MORPHOLOGY NORMAL",NA,"",NA,NA,"NA","","","LAB1","PLASMA","","Y",100,"Treatment Period 1 Day 0","Treatment Period 1","2013-12-17T17:47",-1
"STUDY-01","LB","STUDY-01-4",90,"BILIU","Bilirubin Urine","URINALYSIS","","NEGATIVE","","","NEGATIVE","NEGATIVE",NA,"",NA,NA,"NORMAL","","","LAB1","URINE","","",140,"Treatment Period 1 Day 4","Treatment Period 1","2013-12-21T08:42",4
"STUDY-01","LB","STUDY-01-4",91,"GLUCU","Glucose Urine","URINALYSIS","","NEGATIVE","mmol/L","","NEGATIVE","NEGATIVE",NA,"mmol/L",NA,NA,"NORMAL","","","LAB1","URINE","","",140,"Treatment Period 1 Day 4","Treatment Period 1","2013-12-21T08:42",4
"STUDY-01","LB","STUDY-01-4",92,"KETONES","Ketones","URINALYSIS","","NEGATIVE","mmol/L","","NEGATIVE","NEGATIVE",NA,"mmol/L",NA,NA,"NORMAL","","","LAB1","URINE","","",140,"Treatment Period 1 Day 4","Treatment Period 1","2013-12-21T08:42",4
"STUDY-01","LB","STUDY-01-4",93,"LEUKASE","Leukocyte Esterase","URINALYSIS","","NEGATIVE","","","NEGATIVE","NEGATIVE",NA,"",NA,NA,"NORMAL","","","LAB1","URINE","","",140,"Treatment Period 1 Day 4","Treatment Period 1","2013-12-21T08:42",4
"STUDY-01","LB","STUDY-01-4",94,"NITRITE","Nitrite","URINALYSIS","","NEGATIVE","","","NEGATIVE","NEGATIVE",NA,"",NA,NA,"NORMAL","","","LAB1","URINE","","",140,"Treatment Period 1 Day 4","Treatment Period 1","2013-12-21T08:42",4
"STUDY-01","LB","STUDY-01-4",95,"OCCBLD","Occult Blood","URINALYSIS","","NEGATIVE","","","NEGATIVE","NEGATIVE",NA,"",NA,NA,"NORMAL","","","LAB1","URINE","","",140,"Treatment Period 1 Day 4","Treatment Period 1","2013-12-21T08:42",4
"STUDY-01","LB","STUDY-01-4",96,"PH","pH","URINALYSIS","","7.5","","5.0","8.0","7.5",7.5,"",5,8,"NORMAL","","","LAB1","URINE","","",140,"Treatment Period 1 Day 4","Treatment Period 1","2013-12-21T08:42",4
"STUDY-01","LB","STUDY-01-4",97,"PROTU","Protein Urine","URINALYSIS","","NEGATIVE","g/L","","<0.3","NEGATIVE",NA,"g/L",NA,0.3,"NORMAL","","","LAB1","URINE","","",140,"Treatment Period 1 Day 4","Treatment Period 1","2013-12-21T08:42",4
"STUDY-01","LB","STUDY-01-4",98,"SPGRAV","Specific Gravity","URINALYSIS","","1.25875","","1.005","1.030","1.25875",1.25875,"",1.005,1.03,"NORMAL","","","LAB1","URINE","","",140,"Treatment Period 1 Day 4","Treatment Period 1","2013-12-21T08:42",4
"STUDY-01","LB","STUDY-01-4",99,"UROBIL","Urobilinogen","URINALYSIS","","4","umol/L","3.2","16.0","4",4,"umol/L",3.2,16,"NORMAL","","","LAB1","URINE","","",140,"Treatment Period 1 Day 4","Treatment Period 1","2013-12-21T08:42",4
"STUDY-01","LB","STUDY-01-4",100,"ALB","Albumin","CHEMISTRY","LIVER FUNCTION","55","g/L","35","52","55",55,"g/L",35,52,"NORMAL","","","LAB1","SERUM","","",140,"Treatment Period 1 Day 4","Treatment Period 1","2013-12-21T09:15",4
"STUDY-01","LB","STUDY-01-4",101,"ALT","Alanine Aminotransferase","CHEMISTRY","LIVER FUNCTION","25","U/L","","<36","25",25,"U/L",NA,36,"NORMAL","","","LAB1","SERUM","","",140,"Treatment Period 1 Day 4","Treatment Period 1","2013-12-21T09:15",4
"STUDY-01","LB","STUDY-01-4",102,"AMYLASE","Amylase","CHEMISTRY","LIVER FUNCTION","85","U/L","30","110","85",85,"U/L",30,110,"NORMAL","","","LAB1","SERUM","","",140,"Treatment Period 1 Day 4","Treatment Period 1","2013-12-21T09:15",4
"STUDY-01","LB","STUDY-01-4",103,"AST","Aspartate Aminotransferase","CHEMISTRY","LIVER FUNCTION","25","U/L","","<31","25",25,"U/L",NA,31,"NORMAL","","","LAB1","SERUM","","",140,"Treatment Period 1 Day 4","Treatment Period 1","2013-12-21T09:15",4
"STUDY-01","LB","STUDY-01-4",104,"BASO","Basophils","HEMATOLOGY","DIFFERENTIALS","0","10^9/L","0.00","0.20","0",0,"10^9/L",0,0.2,"NORMAL","","","LAB1","PLASMA","","",140,"Treatment Period 1 Day 4","Treatment Period 1","2013-12-21T09:15",4
"STUDY-01","LB","STUDY-01-4",105,"BILI","Bilirubin","CHEMISTRY","LIVER FUNCTION","10","umol/L","","<23","10",10,"umol/L",NA,23,"NORMAL","","","LAB1","SERUM","","",140,"Treatment Period 1 Day 4","Treatment Period 1","2013-12-21T09:15",4
"STUDY-01","LB","STUDY-01-4",106,"CA","Calcium","CHEMISTRY","ELECTROLYTES","2.7625","mmol/l","2.20","2.65","2.7625",2.7625,"mmol/l",2.2,2.65,"NORMAL","","","LAB1","SERUM","","",140,"Treatment Period 1 Day 4","Treatment Period 1","2013-12-21T09:15",4
"STUDY-01","LB","STUDY-01-4",107,"CL","Chloride","CHEMISTRY","ELECTROLYTES","131.25","mmol/L","95","108","131.25",131.25,"mmol/L",95,108,"NORMAL","","","LAB1","SERUM","","",140,"Treatment Period 1 Day 4","Treatment Period 1","2013-12-21T09:15",4
"STUDY-01","LB","STUDY-01-4",108,"CREAT","Creatinine","CHEMISTRY","RENAL FUNCTION","81.25","umol/L","50","100","81.25",81.25,"umol/L",50,100,"NORMAL","","","LAB1","SERUM","","",140,"Treatment Period 1 Day 4","Treatment Period 1","2013-12-21T09:15",4
"STUDY-01","LB","STUDY-01-4",109,"EOS","Eosinophils","HEMATOLOGY","DIFFERENTIALS","0.1875","10^9/L","0.00","0.40","0.1875",0.1875,"10^9/L",0,0.4,"NORMAL","","","LAB1","PLASMA","","",140,"Treatment Period 1 Day 4","Treatment Period 1","2013-12-21T09:15",4
"STUDY-01","LB","STUDY-01-4",110,"GLUC","Glucose","CHEMISTRY","","6.125","mmol/L","3.6","7.0","6.125",6.125,"mmol/L",3.6,7,"NORMAL","","","LAB1","SERUM","","",140,"Treatment Period 1 Day 4","Treatment Period 1","2013-12-21T09:15",4
"STUDY-01","LB","STUDY-01-4",111,"HCT","Hematocrit","HEMATOLOGY","","40","%","33","45","40",40,"%",33,45,"LOW","","","LAB1","PLASMA","","",140,"Treatment Period 1 Day 4","Treatment Period 1","2013-12-21T09:15",4
"STUDY-01","LB","STUDY-01-4",112,"HGB","Hemoglobin","HEMATOLOGY","","130","g/L","115","155","130",130,"g/L",115,155,"LOW","","","LAB1","PLASMA","","",140,"Treatment Period 1 Day 4","Treatment Period 1","2013-12-21T09:15",4
"STUDY-01","LB","STUDY-01-4",113,"K","Potassium","CHEMISTRY","ELECTROLYTES","6","mmol/L","3.3","5.1","6",6,"mmol/L",3.3,5.1,"NORMAL","","","LAB1","SERUM","","",140,"Treatment Period 1 Day 4","Treatment Period 1","2013-12-21T09:15",4
"STUDY-01","LB","STUDY-01-4",114,"LYM","Lymphocytes","HEMATOLOGY","DIFFERENTIALS","2.675","10^9/L","1.00","3.20","2.675",2.675,"10^9/L",1,3.2,"NORMAL","","","LAB1","PLASMA","","",140,"Treatment Period 1 Day 4","Treatment Period 1","2013-12-21T09:15",4
"STUDY-01","LB","STUDY-01-4",115,"MONO","Monocytes","HEMATOLOGY","DIFFERENTIALS","0.575","10^9/L","0.00","0.80","0.575",0.575,"10^9/L",0,0.8,"NORMAL","","","LAB1","PLASMA","","",140,"Treatment Period 1 Day 4","Treatment Period 1","2013-12-21T09:15",4
"STUDY-01","LB","STUDY-01-4",116,"NEUT","Neutrophils","HEMATOLOGY","DIFFERENTIALS","2.9375","10^9/L","1.80","7.00","2.9375",2.9375,"10^9/L",1.8,7,"NORMAL","","","LAB1","PLASMA","","",140,"Treatment Period 1 Day 4","Treatment Period 1","2013-12-21T09:15",4
"STUDY-01","LB","STUDY-01-4",117,"PLAT","Platelets","HEMATOLOGY","","301.25","10^9/L","145","400","301.25",301.25,"10^9/L",145,400,"NORMAL","","","LAB1","PLASMA","","",140,"Treatment Period 1 Day 4","Treatment Period 1","2013-12-21T09:15",4
"STUDY-01","LB","STUDY-01-4",118,"PLATMRPH","Platelet Morphology","HEMATOLOGY","","PLATELETS: PLATELET MORPHOLOGY NORMAL","","","","PLATELETS: PLATELET MORPHOLOGY NORMAL",NA,"",NA,NA,"NA","","","LAB1","PLASMA","","",140,"Treatment Period 1 Day 4","Treatment Period 1","2013-12-21T09:15",4
"STUDY-01","LB","STUDY-01-4",119,"RBC","Erythrocytes","HEMATOLOGY","","4.7125","10^12/L","3.60","5.01","4.7125",4.7125,"10^12/L",3.6,5.01,"NORMAL","","","LAB1","PLASMA","","",140,"Treatment Period 1 Day 4","Treatment Period 1","2013-12-21T09:15",4
"STUDY-01","LB","STUDY-01-4",120,"RBCMORPH","Erythrocyte Cell Morphology","HEMATOLOGY","DIFFERENTIALS","RBC'S: RED CELLS APPEAR NORMAL","","","","RBC'S: RED CELLS APPEAR NORMAL",NA,"",NA,NA,"NA","","","LAB1","PLASMA","","",140,"Treatment Period 1 Day 4","Treatment Period 1","2013-12-21T09:15",4
"STUDY-01","LB","STUDY-01-4",121,"SODIUM","Sodium","CHEMISTRY","ELECTROLYTES","175","mmol/L","135","145","175",175,"mmol/L",135,145,"NORMAL","","","LAB1","SERUM","","",140,"Treatment Period 1 Day 4","Treatment Period 1","2013-12-21T09:15",4
"STUDY-01","LB","STUDY-01-4",122,"UREA","Urea","CHEMISTRY","RENAL FUNCTION","5.875","mmol/L","2.5","8.1","5.875",5.875,"mmol/L",2.5,8.1,"NORMAL","","","LAB1","SERUM","","",140,"Treatment Period 1 Day 4","Treatment Period 1","2013-12-21T09:15",4
"STUDY-01","LB","STUDY-01-4",123,"WBC","Leukocytes","HEMATOLOGY","","6.375","10^9/L","4.0","11.0","6.375",6.375,"10^9/L",4,11,"NORMAL","","","LAB1","PLASMA","","",140,"Treatment Period 1 Day 4","Treatment Period 1","2013-12-21T09:15",4
"STUDY-01","LB","STUDY-01-4",124,"WBCMORPH","Leukocyte Cell Morphology","HEMATOLOGY","","WBC'S: WBC MORPHOLOGY NORMAL","","","","WBC'S: WBC MORPHOLOGY NORMAL",NA,"",NA,NA,"NA","","","LAB1","PLASMA","","",140,"Treatment Period 1 Day 4","Treatment Period 1","2013-12-21T09:15",4
"STUDY-01","LB","STUDY-01-4",125,"ETHANOL","Ethanol","BREATH ALCOHOL CONCENTRATION","BAC","NEGATIVE","","","NEGATIVE","NEGATIVE",NA,"",NA,NA,"NORMAL","","","LAB2","BREATH","","Y",200,"Treatment Period 2 Day 0","Treatment Period 2","2013-12-27",10
"STUDY-01","LB","STUDY-01-4",126,"HCGU","Choriogonadotropin Beta Urine","URINALYSIS","HORMONES","NEGATIVE","","NEGATIVE","NEGATIVE","NEGATIVE",NA,"",NA,NA,"NORMAL","","","LAB2","URINE","","Y",200,"Treatment Period 2 Day 0","Treatment Period 2","2013-12-27",10
"STUDY-01","LB","STUDY-01-4",127,"AMPHET","Amphetamine","URINALYSIS","DRUG SCREEN","NEGATIVE","","NEGATIVE","NEGATIVE","NEGATIVE",NA,"",NA,NA,"NORMAL","","","LAB2","URINE","","Y",200,"Treatment Period 2 Day 0","Treatment Period 2","2013-12-27T17:48",10
"STUDY-01","LB","STUDY-01-4",128,"BACT","Bacteria","URINALYSIS","MICROSCOPY","FEW","/HPF","","NEGATIVE","FEW",NA,"/HPF",NA,NA,"ABNORMAL","","","LAB1","URINE","","Y",200,"Treatment Period 2 Day 0","Treatment Period 2","2013-12-27T17:48",10
"STUDY-01","LB","STUDY-01-4",129,"BILIU","Bilirubin Urine","URINALYSIS","","NEGATIVE","","","NEGATIVE","NEGATIVE",NA,"",NA,NA,"NORMAL","","","LAB1","URINE","","Y",200,"Treatment Period 2 Day 0","Treatment Period 2","2013-12-27T17:48",10
"STUDY-01","LB","STUDY-01-4",130,"BNZDZPN","Benzodiazepine","URINALYSIS","DRUG SCREEN","NEGATIVE","","NEGATIVE","NEGATIVE","NEGATIVE",NA,"",NA,NA,"NORMAL","","","LAB2","URINE","","Y",200,"Treatment Period 2 Day 0","Treatment Period 2","2013-12-27T17:48",10
"STUDY-01","LB","STUDY-01-4",131,"CANNAB","Cannabinoids","URINALYSIS","DRUG SCREEN","NEGATIVE","","NEGATIVE","NEGATIVE","NEGATIVE",NA,"",NA,NA,"NORMAL","","","LAB2","URINE","","Y",200,"Treatment Period 2 Day 0","Treatment Period 2","2013-12-27T17:48",10
"STUDY-01","LB","STUDY-01-4",132,"COCAINE","Cocaine","URINALYSIS","DRUG SCREEN","NEGATIVE","","NEGATIVE","NEGATIVE","NEGATIVE",NA,"",NA,NA,"NORMAL","","","LAB2","URINE","","Y",200,"Treatment Period 2 Day 0","Treatment Period 2","2013-12-27T17:48",10
"STUDY-01","LB","STUDY-01-4",133,"EPISQCE","Squamous Epithelial Cells","URINALYSIS","MICROSCOPY","0-5","/HPF","","0-5","0-5",NA,"/HPF",NA,5,"NORMAL","","","LAB1","URINE","","Y",200,"Treatment Period 2 Day 0","Treatment Period 2","2013-12-27T17:48",10
"STUDY-01","LB","STUDY-01-4",134,"GLUCU","Glucose Urine","URINALYSIS","","NEGATIVE","mmol/L","","NEGATIVE","NEGATIVE",NA,"mmol/L",NA,NA,"NORMAL","","","LAB1","URINE","","Y",200,"Treatment Period 2 Day 0","Treatment Period 2","2013-12-27T17:48",10
"STUDY-01","LB","STUDY-01-4",135,"KETONES","Ketones","URINALYSIS","","NEGATIVE","mmol/L","","NEGATIVE","NEGATIVE",NA,"mmol/L",NA,NA,"NORMAL","","","LAB1","URINE","","Y",200,"Treatment Period 2 Day 0","Treatment Period 2","2013-12-27T17:48",10
"STUDY-01","LB","STUDY-01-4",136,"LEUKASE","Leukocyte Esterase","URINALYSIS","","NEGATIVE","","","NEGATIVE","NEGATIVE",NA,"",NA,NA,"NORMAL","","","LAB1","URINE","","Y",200,"Treatment Period 2 Day 0","Treatment Period 2","2013-12-27T17:48",10
"STUDY-01","LB","STUDY-01-4",137,"NITRITE","Nitrite","URINALYSIS","","POSITIVE","","","NEGATIVE","POSITIVE",NA,"",NA,NA,"ABNORMAL","","","LAB1","URINE","","Y",200,"Treatment Period 2 Day 0","Treatment Period 2","2013-12-27T17:48",10
"STUDY-01","LB","STUDY-01-4",138,"OCCBLD","Occult Blood","URINALYSIS","","NEGATIVE","","","NEGATIVE","NEGATIVE",NA,"",NA,NA,"NORMAL","","","LAB1","URINE","","Y",200,"Treatment Period 2 Day 0","Treatment Period 2","2013-12-27T17:48",10
"STUDY-01","LB","STUDY-01-4",139,"OPIATE","Opiate","URINALYSIS","DRUG SCREEN","NEGATIVE","","NEGATIVE","NEGATIVE","NEGATIVE",NA,"",NA,NA,"NORMAL","","","LAB2","URINE","","Y",200,"Treatment Period 2 Day 0","Treatment Period 2","2013-12-27T17:48",10
"STUDY-01","LB","STUDY-01-4",140,"OXYCDN","Oxycodone","URINALYSIS","DRUG SCREEN","NEGATIVE","","NEGATIVE","NEGATIVE","NEGATIVE",NA,"",NA,NA,"NORMAL","","","LAB2","URINE","","Y",200,"Treatment Period 2 Day 0","Treatment Period 2","2013-12-27T17:48",10
"STUDY-01","LB","STUDY-01-4",141,"PH","pH","URINALYSIS","","6.875","","5.0","8.0","6.875",6.875,"",5,8,"NORMAL","","","LAB1","URINE","","Y",200,"Treatment Period 2 Day 0","Treatment Period 2","2013-12-27T17:48",10
"STUDY-01","LB","STUDY-01-4",142,"PROTU","Protein Urine","URINALYSIS","","NEGATIVE","g/L","","<0.3","NEGATIVE",NA,"g/L",NA,0.3,"NORMAL","","","LAB1","URINE","","Y",200,"Treatment Period 2 Day 0","Treatment Period 2","2013-12-27T17:48",10
"STUDY-01","LB","STUDY-01-4",143,"RBCU","Erythrocytes Urine","URINALYSIS","MICROSCOPY","0-2","/HPF","","0-2","0-2",NA,"/HPF",NA,2,"NORMAL","","","LAB1","URINE","","Y",200,"Treatment Period 2 Day 0","Treatment Period 2","2013-12-27T17:48",10
"STUDY-01","LB","STUDY-01-4",144,"SPGRAV","Specific Gravity","URINALYSIS","","1.26625","","1.005","1.030","1.26625",1.26625,"",1.005,1.03,"NORMAL","","","LAB1","URINE","","Y",200,"Treatment Period 2 Day 0","Treatment Period 2","2013-12-27T17:48",10
"STUDY-01","LB","STUDY-01-4",145,"UROBIL","Urobilinogen","URINALYSIS","","4","umol/L","3.2","16.0","4",4,"umol/L",3.2,16,"NORMAL","","","LAB1","URINE","","Y",200,"Treatment Period 2 Day 0","Treatment Period 2","2013-12-27T17:48",10
"STUDY-01","LB","STUDY-01-4",146,"WBCU","Leukocytes Urine","URINALYSIS","MICROSCOPY","0-2","/HPF","","0-2","0-2",NA,"/HPF",NA,2,"NORMAL","","","LAB1","URINE","","Y",200,"Treatment Period 2 Day 0","Treatment Period 2","2013-12-27T17:48",10
"STUDY-01","LB","STUDY-01-4",147,"ALB","Albumin","CHEMISTRY","LIVER FUNCTION","55","g/L","35","52","55",55,"g/L",35,52,"NORMAL","","","LAB1","SERUM","","Y",200,"Treatment Period 2 Day 0","Treatment Period 2","2013-12-27T18:36",10
"STUDY-01","LB","STUDY-01-4",148,"ALT","Alanine Aminotransferase","CHEMISTRY","LIVER FUNCTION","22.5","U/L","","<36","22.5",22.5,"U/L",NA,36,"NORMAL","","","LAB1","SERUM","","Y",200,"Treatment Period 2 Day 0","Treatment Period 2","2013-12-27T18:36",10
"STUDY-01","LB","STUDY-01-4",149,"AMYLASE","Amylase","CHEMISTRY","LIVER FUNCTION","75","U/L","30","110","75",75,"U/L",30,110,"NORMAL","","","LAB1","SERUM","","Y",200,"Treatment Period 2 Day 0","Treatment Period 2","2013-12-27T18:36",10
"STUDY-01","LB","STUDY-01-4",150,"AST","Aspartate Aminotransferase","CHEMISTRY","LIVER FUNCTION","23.75","U/L","","<31","23.75",23.75,"U/L",NA,31,"NORMAL","","","LAB1","SERUM","","Y",200,"Treatment Period 2 Day 0","Treatment Period 2","2013-12-27T18:36",10
"STUDY-01","LB","STUDY-01-4",151,"BASO","Basophils","HEMATOLOGY","DIFFERENTIALS","0.1","10^9/L","0.00","0.20","0.1",0.1,"10^9/L",0,0.2,"NORMAL","","","LAB1","PLASMA","","Y",200,"Treatment Period 2 Day 0","Treatment Period 2","2013-12-27T18:36",10
"STUDY-01","LB","STUDY-01-4",152,"BILI","Bilirubin","CHEMISTRY","LIVER FUNCTION","6.25","umol/L","","<23","6.25",6.25,"umol/L",NA,23,"NORMAL","","","LAB1","SERUM","","Y",200,"Treatment Period 2 Day 0","Treatment Period 2","2013-12-27T18:36",10
"STUDY-01","LB","STUDY-01-4",153,"CA","Calcium","CHEMISTRY","ELECTROLYTES","2.9125","mmol/l","2.20","2.65","2.9125",2.9125,"mmol/l",2.2,2.65,"NORMAL","","","LAB1","SERUM","","Y",200,"Treatment Period 2 Day 0","Treatment Period 2","2013-12-27T18:36",10
"STUDY-01","LB","STUDY-01-4",154,"CL","Chloride","CHEMISTRY","ELECTROLYTES","128.75","mmol/L","95","108","128.75",128.75,"mmol/L",95,108,"NORMAL","","","LAB1","SERUM","","Y",200,"Treatment Period 2 Day 0","Treatment Period 2","2013-12-27T18:36",10
"STUDY-01","LB","STUDY-01-4",155,"CREAT","Creatinine","CHEMISTRY","RENAL FUNCTION","91.25","umol/L","50","100","91.25",91.25,"umol/L",50,100,"NORMAL","","","LAB1","SERUM","","Y",200,"Treatment Period 2 Day 0","Treatment Period 2","2013-12-27T18:36",10
"STUDY-01","LB","STUDY-01-4",156,"EOS","Eosinophils","HEMATOLOGY","DIFFERENTIALS","0.2","10^9/L","0.00","0.40","0.2",0.2,"10^9/L",0,0.4,"NORMAL","","","LAB1","PLASMA","","Y",200,"Treatment Period 2 Day 0","Treatment Period 2","2013-12-27T18:36",10
"STUDY-01","LB","STUDY-01-4",157,"GLUC","Glucose","CHEMISTRY","","6.25","mmol/L","3.6","7.0","6.25",6.25,"mmol/L",3.6,7,"NORMAL","","","LAB1","SERUM","","Y",200,"Treatment Period 2 Day 0","Treatment Period 2","2013-12-27T18:36",10
"STUDY-01","LB","STUDY-01-4",158,"HCT","Hematocrit","HEMATOLOGY","","40","%","33","45","40",40,"%",33,45,"LOW","","","LAB1","PLASMA","","Y",200,"Treatment Period 2 Day 0","Treatment Period 2","2013-12-27T18:36",10
"STUDY-01","LB","STUDY-01-4",159,"HGB","Hemoglobin","HEMATOLOGY","","131.25","g/L","115","155","131.25",131.25,"g/L",115,155,"LOW","","","LAB1","PLASMA","","Y",200,"Treatment Period 2 Day 0","Treatment Period 2","2013-12-27T18:36",10
"STUDY-01","LB","STUDY-01-4",160,"K","Potassium","CHEMISTRY","ELECTROLYTES","5.375","mmol/L","3.3","5.1","5.375",5.375,"mmol/L",3.3,5.1,"NORMAL","","","LAB1","SERUM","","Y",200,"Treatment Period 2 Day 0","Treatment Period 2","2013-12-27T18:36",10
"STUDY-01","LB","STUDY-01-4",161,"LYM","Lymphocytes","HEMATOLOGY","DIFFERENTIALS","3.2","10^9/L","1.00","3.20","3.2",3.2,"10^9/L",1,3.2,"NORMAL","","","LAB1","PLASMA","","Y",200,"Treatment Period 2 Day 0","Treatment Period 2","2013-12-27T18:36",10
"STUDY-01","LB","STUDY-01-4",162,"MONO","Monocytes","HEMATOLOGY","DIFFERENTIALS","0.8","10^9/L","0.00","0.80","0.8",0.8,"10^9/L",0,0.8,"NORMAL","","","LAB1","PLASMA","","Y",200,"Treatment Period 2 Day 0","Treatment Period 2","2013-12-27T18:36",10
"STUDY-01","LB","STUDY-01-4",163,"NEUT","Neutrophils","HEMATOLOGY","DIFFERENTIALS","5.7","10^9/L","1.80","7.00","5.7",5.7,"10^9/L",1.8,7,"NORMAL","","","LAB1","PLASMA","","Y",200,"Treatment Period 2 Day 0","Treatment Period 2","2013-12-27T18:36",10
"STUDY-01","LB","STUDY-01-4",164,"PLAT","Platelets","HEMATOLOGY","","373.75","10^9/L","145","400","373.75",373.75,"10^9/L",145,400,"NORMAL","","","LAB1","PLASMA","","Y",200,"Treatment Period 2 Day 0","Treatment Period 2","2013-12-27T18:36",10
"STUDY-01","LB","STUDY-01-4",165,"PLATMRPH","Platelet Morphology","HEMATOLOGY","","PLATELETS: PLATELET MORPHOLOGY NORMAL","","","","PLATELETS: PLATELET MORPHOLOGY NORMAL",NA,"",NA,NA,"NA","","","LAB1","PLASMA","","Y",200,"Treatment Period 2 Day 0","Treatment Period 2","2013-12-27T18:36",10
"STUDY-01","LB","STUDY-01-4",166,"RBC","Erythrocytes","HEMATOLOGY","","4.675","10^12/L","3.60","5.01","4.675",4.675,"10^12/L",3.6,5.01,"NORMAL","","","LAB1","PLASMA","","Y",200,"Treatment Period 2 Day 0","Treatment Period 2","2013-12-27T18:36",10
"STUDY-01","LB","STUDY-01-4",167,"RBCMORPH","Erythrocyte Cell Morphology","HEMATOLOGY","DIFFERENTIALS","RBC'S: POLYCHROMASIA - MILD","","","","RBC'S: POLYCHROMASIA - MILD",NA,"",NA,NA,"NA","","","LAB1","PLASMA","","Y",200,"Treatment Period 2 Day 0","Treatment Period 2","2013-12-27T18:36",10
"STUDY-01","LB","STUDY-01-4",168,"SODIUM","Sodium","CHEMISTRY","ELECTROLYTES","172.5","mmol/L","135","145","172.5",172.5,"mmol/L",135,145,"NORMAL","","","LAB1","SERUM","","Y",200,"Treatment Period 2 Day 0","Treatment Period 2","2013-12-27T18:36",10
"STUDY-01","LB","STUDY-01-4",169,"UREA","Urea","CHEMISTRY","RENAL FUNCTION","4.25","mmol/L","2.5","8.1","4.25",4.25,"mmol/L",2.5,8.1,"NORMAL","","","LAB1","SERUM","","Y",200,"Treatment Period 2 Day 0","Treatment Period 2","2013-12-27T18:36",10
"STUDY-01","LB","STUDY-01-4",170,"WBC","Leukocytes","HEMATOLOGY","","10","10^9/L","4.0","11.0","10",10,"10^9/L",4,11,"NORMAL","","","LAB1","PLASMA","","Y",200,"Treatment Period 2 Day 0","Treatment Period 2","2013-12-27T18:36",10
"STUDY-01","LB","STUDY-01-4",171,"WBCMORPH","Leukocyte Cell Morphology","HEMATOLOGY","","WBC'S: WBC MORPHOLOGY NORMAL","","","","WBC'S: WBC MORPHOLOGY NORMAL",NA,"",NA,NA,"NA","","","LAB1","PLASMA","","Y",200,"Treatment Period 2 Day 0","Treatment Period 2","2013-12-27T18:36",10
"STUDY-01","LB","STUDY-01-4",172,"ALB","Albumin","CHEMISTRY","LIVER FUNCTION","52.5","g/L","35","52","52.5",52.5,"g/L",35,52,"NORMAL","","","LAB1","SERUM","","",240,"Treatment Period 2 Day 4","Treatment Period 2","2013-12-31T09:15",14
"STUDY-01","LB","STUDY-01-4",173,"ALT","Alanine Aminotransferase","CHEMISTRY","LIVER FUNCTION","28.75","U/L","","<36","28.75",28.75,"U/L",NA,36,"NORMAL","","","LAB1","SERUM","","",240,"Treatment Period 2 Day 4","Treatment Period 2","2013-12-31T09:15",14
"STUDY-01","LB","STUDY-01-4",174,"AMYLASE","Amylase","CHEMISTRY","LIVER FUNCTION","87.5","U/L","30","110","87.5",87.5,"U/L",30,110,"NORMAL","","","LAB1","SERUM","","",240,"Treatment Period 2 Day 4","Treatment Period 2","2013-12-31T09:15",14
"STUDY-01","LB","STUDY-01-4",175,"AST","Aspartate Aminotransferase","CHEMISTRY","LIVER FUNCTION","27.5","U/L","","<31","27.5",27.5,"U/L",NA,31,"NORMAL","","","LAB1","SERUM","","",240,"Treatment Period 2 Day 4","Treatment Period 2","2013-12-31T09:15",14
"STUDY-01","LB","STUDY-01-4",176,"BASO","Basophils","HEMATOLOGY","DIFFERENTIALS","0.0875","10^9/L","0.00","0.20","0.0875",0.0875,"10^9/L",0,0.2,"NORMAL","","","LAB1","PLASMA","","",240,"Treatment Period 2 Day 4","Treatment Period 2","2013-12-31T09:15",14
"STUDY-01","LB","STUDY-01-4",177,"BILI","Bilirubin","CHEMISTRY","LIVER FUNCTION","7.5","umol/L","","<23","7.5",7.5,"umol/L",NA,23,"NORMAL","","","LAB1","SERUM","","",240,"Treatment Period 2 Day 4","Treatment Period 2","2013-12-31T09:15",14
"STUDY-01","LB","STUDY-01-4",178,"CA","Calcium","CHEMISTRY","ELECTROLYTES","2.875","mmol/l","2.20","2.65","2.875",2.875,"mmol/l",2.2,2.65,"NORMAL","","","LAB1","SERUM","","",240,"Treatment Period 2 Day 4","Treatment Period 2","2013-12-31T09:15",14
"STUDY-01","LB","STUDY-01-4",179,"CL","Chloride","CHEMISTRY","ELECTROLYTES","126.25","mmol/L","95","108","126.25",126.25,"mmol/L",95,108,"NORMAL","","","LAB1","SERUM","","",240,"Treatment Period 2 Day 4","Treatment Period 2","2013-12-31T09:15",14
"STUDY-01","LB","STUDY-01-4",180,"CREAT","Creatinine","CHEMISTRY","RENAL FUNCTION","85","umol/L","50","100","85",85,"umol/L",50,100,"NORMAL","","","LAB1","SERUM","","",240,"Treatment Period 2 Day 4","Treatment Period 2","2013-12-31T09:15",14
"STUDY-01","LB","STUDY-01-4",181,"EOS","Eosinophils","HEMATOLOGY","DIFFERENTIALS","0.25","10^9/L","0.00","0.40","0.25",0.25,"10^9/L",0,0.4,"NORMAL","","","LAB1","PLASMA","","",240,"Treatment Period 2 Day 4","Treatment Period 2","2013-12-31T09:15",14
"STUDY-01","LB","STUDY-01-4",182,"GLUC","Glucose","CHEMISTRY","","6.375","mmol/L","3.6","7.0","6.375",6.375,"mmol/L",3.6,7,"NORMAL","","","LAB1","SERUM","","",240,"Treatment Period 2 Day 4","Treatment Period 2","2013-12-31T09:15",14
"STUDY-01","LB","STUDY-01-4",183,"HCT","Hematocrit","HEMATOLOGY","","38.75","%","33","45","38.75",38.75,"%",33,45,"LOW","","","LAB1","PLASMA","","",240,"Treatment Period 2 Day 4","Treatment Period 2","2013-12-31T09:15",14
"STUDY-01","LB","STUDY-01-4",184,"HGB","Hemoglobin","HEMATOLOGY","","123.75","g/L","115","155","123.75",123.75,"g/L",115,155,"LOW","","","LAB1","PLASMA","","",240,"Treatment Period 2 Day 4","Treatment Period 2","2013-12-31T09:15",14
"STUDY-01","LB","STUDY-01-4",185,"K","Potassium","CHEMISTRY","ELECTROLYTES","5.625","mmol/L","3.3","5.1","5.625",5.625,"mmol/L",3.3,5.1,"NORMAL","","","LAB1","SERUM","","",240,"Treatment Period 2 Day 4","Treatment Period 2","2013-12-31T09:15",14
"STUDY-01","LB","STUDY-01-4",186,"LYM","Lymphocytes","HEMATOLOGY","DIFFERENTIALS","2.525","10^9/L","1.00","3.20","2.525",2.525,"10^9/L",1,3.2,"NORMAL","","","LAB1","PLASMA","","",240,"Treatment Period 2 Day 4","Treatment Period 2","2013-12-31T09:15",14
"STUDY-01","LB","STUDY-01-4",187,"MONO","Monocytes","HEMATOLOGY","DIFFERENTIALS","0.65","10^9/L","0.00","0.80","0.65",0.65,"10^9/L",0,0.8,"NORMAL","","","LAB1","PLASMA","","",240,"Treatment Period 2 Day 4","Treatment Period 2","2013-12-31T09:15",14
"STUDY-01","LB","STUDY-01-4",188,"NEUT","Neutrophils","HEMATOLOGY","DIFFERENTIALS","4.6375","10^9/L","1.80","7.00","4.6375",4.6375,"10^9/L",1.8,7,"NORMAL","","","LAB1","PLASMA","","",240,"Treatment Period 2 Day 4","Treatment Period 2","2013-12-31T09:15",14
"STUDY-01","LB","STUDY-01-4",189,"PLAT","Platelets","HEMATOLOGY","","346.25","10^9/L","145","400","346.25",346.25,"10^9/L",145,400,"NORMAL","","","LAB1","PLASMA","","",240,"Treatment Period 2 Day 4","Treatment Period 2","2013-12-31T09:15",14
"STUDY-01","LB","STUDY-01-4",190,"PLATMRPH","Platelet Morphology","HEMATOLOGY","","PLATELETS: PLATELET MORPHOLOGY NORMAL","","","","PLATELETS: PLATELET MORPHOLOGY NORMAL",NA,"",NA,NA,"NA","","","LAB1","PLASMA","","",240,"Treatment Period 2 Day 4","Treatment Period 2","2013-12-31T09:15",14
"STUDY-01","LB","STUDY-01-4",191,"RBC","Erythrocytes","HEMATOLOGY","","4.5375","10^12/L","3.60","5.01","4.5375",4.5375,"10^12/L",3.6,5.01,"NORMAL","","","LAB1","PLASMA","","",240,"Treatment Period 2 Day 4","Treatment Period 2","2013-12-31T09:15",14
"STUDY-01","LB","STUDY-01-4",192,"RBCMORPH","Erythrocyte Cell Morphology","HEMATOLOGY","DIFFERENTIALS","RBC'S: RED CELLS APPEAR NORMAL","","","","RBC'S: RED CELLS APPEAR NORMAL",NA,"",NA,NA,"NA","","","LAB1","PLASMA","","",240,"Treatment Period 2 Day 4","Treatment Period 2","2013-12-31T09:15",14
"STUDY-01","LB","STUDY-01-4",193,"SODIUM","Sodium","CHEMISTRY","ELECTROLYTES","170","mmol/L","135","145","170",170,"mmol/L",135,145,"NORMAL","","","LAB1","SERUM","","",240,"Treatment Period 2 Day 4","Treatment Period 2","2013-12-31T09:15",14
"STUDY-01","LB","STUDY-01-4",194,"UREA","Urea","CHEMISTRY","RENAL FUNCTION","4.375","mmol/L","2.5","8.1","4.375",4.375,"mmol/L",2.5,8.1,"NORMAL","","","LAB1","SERUM","","",240,"Treatment Period 2 Day 4","Treatment Period 2","2013-12-31T09:15",14
"STUDY-01","LB","STUDY-01-4",195,"WBC","Leukocytes","HEMATOLOGY","","8.125","10^9/L","4.0","11.0","8.125",8.125,"10^9/L",4,11,"NORMAL","","","LAB1","PLASMA","","",240,"Treatment Period 2 Day 4","Treatment Period 2","2013-12-31T09:15",14
"STUDY-01","LB","STUDY-01-4",196,"WBCMORPH","Leukocyte Cell Morphology","HEMATOLOGY","","WBC'S: WBC MORPHOLOGY NORMAL","","","","WBC'S: WBC MORPHOLOGY NORMAL",NA,"",NA,NA,"NA","","","LAB1","PLASMA","","",240,"Treatment Period 2 Day 4","Treatment Period 2","2013-12-31T09:15",14
"STUDY-01","LB","STUDY-01-4",197,"BILIU","Bilirubin Urine","URINALYSIS","","NEGATIVE","","","NEGATIVE","NEGATIVE",NA,"",NA,NA,"NORMAL","","","LAB1","URINE","","",240,"Treatment Period 2 Day 4","Treatment Period 2","2013-12-31T09:37",14
"STUDY-01","LB","STUDY-01-4",198,"GLUCU","Glucose Urine","URINALYSIS","","NEGATIVE","mmol/L","","NEGATIVE","NEGATIVE",NA,"mmol/L",NA,NA,"NORMAL","","","LAB1","URINE","","",240,"Treatment Period 2 Day 4","Treatment Period 2","2013-12-31T09:37",14
"STUDY-01","LB","STUDY-01-4",199,"KETONES","Ketones","URINALYSIS","","NEGATIVE","mmol/L","","NEGATIVE","NEGATIVE",NA,"mmol/L",NA,NA,"NORMAL","","","LAB1","URINE","","",240,"Treatment Period 2 Day 4","Treatment Period 2","2013-12-31T09:37",14
"STUDY-01","LB","STUDY-01-4",200,"LEUKASE","Leukocyte Esterase","URINALYSIS","","NEGATIVE","","","NEGATIVE","NEGATIVE",NA,"",NA,NA,"NORMAL","","","LAB1","URINE","","",240,"Treatment Period 2 Day 4","Treatment Period 2","2013-12-31T09:37",14
"STUDY-01","LB","STUDY-01-4",201,"NITRITE","Nitrite","URINALYSIS","","NEGATIVE","","","NEGATIVE","NEGATIVE",NA,"",NA,NA,"NORMAL","","","LAB1","URINE","","",240,"Treatment Period 2 Day 4","Treatment Period 2","2013-12-31T09:37",14
"STUDY-01","LB","STUDY-01-4",202,"OCCBLD","Occult Blood","URINALYSIS","","NEGATIVE","","","NEGATIVE","NEGATIVE",NA,"",NA,NA,"NORMAL","","","LAB1","URINE","","",240,"Treatment Period 2 Day 4","Treatment Period 2","2013-12-31T09:37",14
"STUDY-01","LB","STUDY-01-4",203,"PH","pH","URINALYSIS","","6.875","","5.0","8.0","6.875",6.875,"",5,8,"NORMAL","","","LAB1","URINE","","",240,"Treatment Period 2 Day 4","Treatment Period 2","2013-12-31T09:37",14
"STUDY-01","LB","STUDY-01-4",204,"PROTU","Protein Urine","URINALYSIS","","NEGATIVE","g/L","","<0.3","NEGATIVE",NA,"g/L",NA,0.3,"NORMAL","","","LAB1","URINE","","",240,"Treatment Period 2 Day 4","Treatment Period 2","2013-12-31T09:37",14
"STUDY-01","LB","STUDY-01-4",205,"SPGRAV","Specific Gravity","URINALYSIS","","1.25625","","1.005","1.030","1.25625",1.25625,"",1.005,1.03,"NORMAL","","","LAB1","URINE","","",240,"Treatment Period 2 Day 4","Treatment Period 2","2013-12-31T09:37",14
