"STUDYID","DOMAIN","USUBJID","PCSEQ","PCGRPID","PCTESTCD","PCTEST","PCCAT","PCORRES","PCORRESU","PCSTRESC","PCSTRESN","PCSTRESU","PCSTAT","PCREASND","PCNAM","PCSPEC","PCLLOQ","VISITNUM","VISIT","EPOCH","PCDTC","PCDY","PCTPT","PCTPTNUM"
"STUDY-01","PC","STUDY-01-1",1,"Tx Period 1","ANALYTE1","ANALYTE1","PHARMACOKINETIC CONCENTRATION","BQL","ng/mL","BQL",NA,"ng/mL","","","LAB1","PLASMA",0.1,110,"Treatment Period 1 Day 1","Treatment Period 1","2013-12-18T08:12",1,"Pre-dose",-0.05
"STUDY-01","PC","STUDY-01-1",2,"Tx Period 1","ANALYTE1","ANALYTE1","PHARMACOKINETIC CONCENTRATION","0.57","ng/mL","0.57",0.57,"ng/mL","","","LAB1","PLASMA",0.1,110,"Treatment Period 1 Day 1","Treatment Period 1","2013-12-18T09:30",1,"0.5 h",0.5
"STUDY-01","PC","STUDY-01-1",3,"Tx Period 1","ANALYTE1","ANALYTE1","PHARMACOKINETIC CONCENTRATION","1.85","ng/mL","1.85",1.85,"ng/mL","","","LAB1","PLASMA",0.1,110,"Treatment Period 1 Day 1","Treatment Period 1","2013-12-18T10:00",1,"1 h",1
"STUDY-01","PC","STUDY-01-1",4,"Tx Period 1","ANALYTE1","ANALYTE1","PHARMACOKINETIC CONCENTRATION","180","ng/mL","180",180,"ng/mL","","","LAB1","PLASMA",0.1,110,"Treatment Period 1 Day 1","Treatment Period 1","2013-12-18T10:30",1,"1.5 h",1.5
"STUDY-01","PC","STUDY-01-1",5,"Tx Period 1","ANALYTE1","ANALYTE1","PHARMACOKINETIC CONCENTRATION","261.25","ng/mL","261.25",261.25,"ng/mL","","","LAB1","PLASMA",0.1,110,"Treatment Period 1 Day 1","Treatment Period 1","2013-12-18T11:00",1,"2 h",2
"STUDY-01","PC","STUDY-01-1",6,"Tx Period 1","ANALYTE1","ANALYTE1","PHARMACOKINETIC CONCENTRATION","408.75","ng/mL","408.75",408.75,"ng/mL","","","LAB1","PLASMA",0.1,110,"Treatment Period 1 Day 1","Treatment Period 1","2013-12-18T12:00",1,"3 h",3
"STUDY-01","PC","STUDY-01-1",7,"Tx Period 1","ANALYTE1","ANALYTE1","PHARMACOKINETIC CONCENTRATION","553.75","ng/mL","553.75",553.75,"ng/mL","","","LAB1","PLASMA",0.1,110,"Treatment Period 1 Day 1","Treatment Period 1","2013-12-18T13:00",1,"4 h",4
"STUDY-01","PC","STUDY-01-1",8,"Tx Period 1","ANALYTE1","ANALYTE1","PHARMACOKINETIC CONCENTRATION","755","ng/mL","755",755,"ng/mL","","","LAB1","PLASMA",0.1,110,"Treatment Period 1 Day 1","Treatment Period 1","2013-12-18T15:00",1,"6 h",6
"STUDY-01","PC","STUDY-01-1",9,"Tx Period 1","ANALYTE1","ANALYTE1","PHARMACOKINETIC CONCENTRATION","687.5","ng/mL","687.5",687.5,"ng/mL","","","LAB1","PLASMA",0.1,110,"Treatment Period 1 Day 1","Treatment Period 1","2013-12-18T17:00",1,"8 h",8
"STUDY-01","PC","STUDY-01-1",10,"Tx Period 1","ANALYTE1","ANALYTE1","PHARMACOKINETIC CONCENTRATION","462.5","ng/mL","462.5",462.5,"ng/mL","","","LAB1","PLASMA",0.1,110,"Treatment Period 1 Day 1","Treatment Period 1","2013-12-18T21:00",1,"12 h",12
"STUDY-01","PC","STUDY-01-1",11,"Tx Period 1","ANALYTE1","ANALYTE1","PHARMACOKINETIC CONCENTRATION","301.25","ng/mL","301.25",301.25,"ng/mL","","","LAB1","PLASMA",0.1,120,"Treatment Period 1 Day 2","Treatment Period 1","2013-12-19T09:00",2,"24 h",24
"STUDY-01","PC","STUDY-01-1",12,"Tx Period 1","ANALYTE1","ANALYTE1","PHARMACOKINETIC CONCENTRATION","142.5","ng/mL","142.5",142.5,"ng/mL","","","LAB1","PLASMA",0.1,120,"Treatment Period 1 Day 2","Treatment Period 1","2013-12-19T21:00",2,"36 h",36
"STUDY-01","PC","STUDY-01-1",13,"Tx Period 1","ANALYTE1","ANALYTE1","PHARMACOKINETIC CONCENTRATION","114","ng/mL","114",114,"ng/mL","","","LAB1","PLASMA",0.1,130,"Treatment Period 1 Day 3","Treatment Period 1","2013-12-20T09:00",3,"48 h",48
"STUDY-01","PC","STUDY-01-1",14,"Tx Period 1","ANALYTE1","ANALYTE1","PHARMACOKINETIC CONCENTRATION","45.5","ng/mL","45.5",45.5,"ng/mL","","","LAB1","PLASMA",0.1,140,"Treatment Period 1 Day 4","Treatment Period 1","2013-12-21T09:00",4,"72 h",72
"STUDY-01","PC","STUDY-01-1",15,"Tx Period 2","ANALYTE1","ANALYTE1","PHARMACOKINETIC CONCENTRATION","1.6875","ng/mL","1.6875",1.6875,"ng/mL","","","LAB1","PLASMA",0.1,210,"Treatment Period 2 Day 1","Treatment Period 2","2013-12-28T08:10",11,"Pre-dose",-0.05
"STUDY-01","PC","STUDY-01-1",16,"Tx Period 2","ANALYTE1","ANALYTE1","PHARMACOKINETIC CONCENTRATION","26.125","ng/mL","26.125",26.125,"ng/mL","","","LAB1","PLASMA",0.1,210,"Treatment Period 2 Day 1","Treatment Period 2","2013-12-28T09:30",11,"0.5 h",0.5
"STUDY-01","PC","STUDY-01-1",17,"Tx Period 2","ANALYTE1","ANALYTE1","PHARMACOKINETIC CONCENTRATION","416.25","ng/mL","416.25",416.25,"ng/mL","","","LAB1","PLASMA",0.1,210,"Treatment Period 2 Day 1","Treatment Period 2","2013-12-28T10:00",11,"1 h",1
"STUDY-01","PC","STUDY-01-1",18,"Tx Period 2","ANALYTE1","ANALYTE1","PHARMACOKINETIC CONCENTRATION","700","ng/mL","700",700,"ng/mL","","","LAB1","PLASMA",0.1,210,"Treatment Period 2 Day 1","Treatment Period 2","2013-12-28T10:30",11,"1.5 h",1.5
"STUDY-01","PC","STUDY-01-1",19,"Tx Period 2","ANALYTE1","ANALYTE1","PHARMACOKINETIC CONCENTRATION","713.75","ng/mL","713.75",713.75,"ng/mL","","","LAB1","PLASMA",0.1,210,"Treatment Period 2 Day 1","Treatment Period 2","2013-12-28T11:00",11,"2 h",2
"STUDY-01","PC","STUDY-01-1",20,"Tx Period 2","ANALYTE1","ANALYTE1","PHARMACOKINETIC CONCENTRATION","746.25","ng/mL","746.25",746.25,"ng/mL","","","LAB1","PLASMA",0.1,210,"Treatment Period 2 Day 1","Treatment Period 2","2013-12-28T12:00",11,"3 h",3
"STUDY-01","PC","STUDY-01-1",21,"Tx Period 2","ANALYTE1","ANALYTE1","PHARMACOKINETIC CONCENTRATION","646.25","ng/mL","646.25",646.25,"ng/mL","","","LAB1","PLASMA",0.1,210,"Treatment Period 2 Day 1","Treatment Period 2","2013-12-28T13:00",11,"4 h",4
"STUDY-01","PC","STUDY-01-1",22,"Tx Period 2","ANALYTE1","ANALYTE1","PHARMACOKINETIC CONCENTRATION","675","ng/mL","675",675,"ng/mL","","","LAB1","PLASMA",0.1,210,"Treatment Period 2 Day 1","Treatment Period 2","2013-12-28T15:00",11,"6 h",6
"STUDY-01","PC","STUDY-01-1",23,"Tx Period 2","ANALYTE1","ANALYTE1","PHARMACOKINETIC CONCENTRATION","573.75","ng/mL","573.75",573.75,"ng/mL","","","LAB1","PLASMA",0.1,210,"Treatment Period 2 Day 1","Treatment Period 2","2013-12-28T17:00",11,"8 h",8
"STUDY-01","PC","STUDY-01-1",24,"Tx Period 2","ANALYTE1","ANALYTE1","PHARMACOKINETIC CONCENTRATION","435","ng/mL","435",435,"ng/mL","","","LAB1","PLASMA",0.1,210,"Treatment Period 2 Day 1","Treatment Period 2","2013-12-28T21:00",11,"12 h",12
"STUDY-01","PC","STUDY-01-1",25,"Tx Period 2","ANALYTE1","ANALYTE1","PHARMACOKINETIC CONCENTRATION","227.5","ng/mL","227.5",227.5,"ng/mL","","","LAB1","PLASMA",0.1,220,"Treatment Period 2 Day 2","Treatment Period 2","2013-12-29T09:00",12,"24 h",24
"STUDY-01","PC","STUDY-01-1",26,"Tx Period 2","ANALYTE1","ANALYTE1","PHARMACOKINETIC CONCENTRATION","109.25","ng/mL","109.25",109.25,"ng/mL","","","LAB1","PLASMA",0.1,220,"Treatment Period 2 Day 2","Treatment Period 2","2013-12-29T21:00",12,"36 h",36
"STUDY-01","PC","STUDY-01-1",27,"Tx Period 2","ANALYTE1","ANALYTE1","PHARMACOKINETIC CONCENTRATION","92.375","ng/mL","92.375",92.375,"ng/mL","","","LAB1","PLASMA",0.1,230,"Treatment Period 2 Day 3","Treatment Period 2","2013-12-30T09:00",13,"48 h",48
"STUDY-01","PC","STUDY-01-1",28,"Tx Period 2","ANALYTE1","ANALYTE1","PHARMACOKINETIC CONCENTRATION","41.875","ng/mL","41.875",41.875,"ng/mL","","","LAB1","PLASMA",0.1,240,"Treatment Period 2 Day 4","Treatment Period 2","2013-12-31T09:00",14,"72 h",72
"STUDY-01","PC","STUDY-01-2",1,"Tx Period 1","ANALYTE1","ANALYTE1","PHARMACOKINETIC CONCENTRATION","BQL","ng/mL","BQL",NA,"ng/mL","","","LAB1","PLASMA",0.1,110,"Treatment Period 1 Day 1","Treatment Period 1","2013-12-18T08:18",1,"Pre-dose",-0.05
"STUDY-01","PC","STUDY-01-2",2,"Tx Period 1","ANALYTE1","ANALYTE1","PHARMACOKINETIC CONCENTRATION","0.89","ng/mL","0.89",0.89,"ng/mL","","","LAB1","PLASMA",0.1,110,"Treatment Period 1 Day 1","Treatment Period 1","2013-12-18T09:35",1,"0.5 h",0.5
"STUDY-01","PC","STUDY-01-2",3,"Tx Period 1","ANALYTE1","ANALYTE1","PHARMACOKINETIC CONCENTRATION","12.875","ng/mL","12.875",12.875,"ng/mL","","","LAB1","PLASMA",0.1,110,"Treatment Period 1 Day 1","Treatment Period 1","2013-12-18T10:05",1,"1 h",1
"STUDY-01","PC","STUDY-01-2",4,"Tx Period 1","ANALYTE1","ANALYTE1","PHARMACOKINETIC CONCENTRATION","90.125","ng/mL","90.125",90.125,"ng/mL","","","LAB1","PLASMA",0.1,110,"Treatment Period 1 Day 1","Treatment Period 1","2013-12-18T10:35",1,"1.5 h",1.5
"STUDY-01","PC","STUDY-01-2",5,"Tx Period 1","ANALYTE1","ANALYTE1","PHARMACOKINETIC CONCENTRATION","151.25","ng/mL","151.25",151.25,"ng/mL","","","LAB1","PLASMA",0.1,110,"Treatment Period 1 Day 1","Treatment Period 1","2013-12-18T11:05",1,"2 h",2
"STUDY-01","PC","STUDY-01-2",6,"Tx Period 1","ANALYTE1","ANALYTE1","PHARMACOKINETIC CONCENTRATION","205","ng/mL","205",205,"ng/mL","","","LAB1","PLASMA",0.1,110,"Treatment Period 1 Day 1","Treatment Period 1","2013-12-18T12:05",1,"3 h",3
"STUDY-01","PC","STUDY-01-2",7,"Tx Period 1","ANALYTE1","ANALYTE1","PHARMACOKINETIC CONCENTRATION","583.75","ng/mL","583.75",583.75,"ng/mL","","","LAB1","PLASMA",0.1,110,"Treatment Period 1 Day 1","Treatment Period 1","2013-12-18T13:05",1,"4 h",4
"STUDY-01","PC","STUDY-01-2",8,"Tx Period 1","ANALYTE1","ANALYTE1","PHARMACOKINETIC CONCENTRATION","582.5","ng/mL","582.5",582.5,"ng/mL","","","LAB1","PLASMA",0.1,110,"Treatment Period 1 Day 1","Treatment Period 1","2013-12-18T15:07",1,"6 h",6
"STUDY-01","PC","STUDY-01-2",9,"Tx Period 1","ANALYTE1","ANALYTE1","PHARMACOKINETIC CONCENTRATION","471.25","ng/mL","471.25",471.25,"ng/mL","","","LAB1","PLASMA",0.1,110,"Treatment Period 1 Day 1","Treatment Period 1","2013-12-18T17:05",1,"8 h",8
"STUDY-01","PC","STUDY-01-2",10,"Tx Period 1","ANALYTE1","ANALYTE1","PHARMACOKINETIC CONCENTRATION","313.75","ng/mL","313.75",313.75,"ng/mL","","","LAB1","PLASMA",0.1,110,"Treatment Period 1 Day 1","Treatment Period 1","2013-12-18T21:05",1,"12 h",12
"STUDY-01","PC","STUDY-01-2",11,"Tx Period 1","ANALYTE1","ANALYTE1","PHARMACOKINETIC CONCENTRATION","","","",NA,"","NOT DONE","PK not collected at 24hr due to AE for chest pain, subject sent to emergency room","LAB1","PLASMA",NA,120,"Treatment Period 1 Day 2","Treatment Period 1","",NA,"24 h",24
"STUDY-01","PC","STUDY-01-2",12,"Tx Period 1","ANALYTE1","ANALYTE1","PHARMACOKINETIC CONCENTRATION","96.75","ng/mL","96.75",96.75,"ng/mL","","","LAB1","PLASMA",0.1,120,"Treatment Period 1 Day 2","Treatment Period 1","2013-12-19T21:05",2,"36 h",36
"STUDY-01","PC","STUDY-01-2",13,"Tx Period 1","ANALYTE1","ANALYTE1","PHARMACOKINETIC CONCENTRATION","83","ng/mL","83",83,"ng/mL","","","LAB1","PLASMA",0.1,130,"Treatment Period 1 Day 3","Treatment Period 1","2013-12-20T09:05",3,"48 h",48
"STUDY-01","PC","STUDY-01-2",14,"Tx Period 1","ANALYTE1","ANALYTE1","PHARMACOKINETIC CONCENTRATION","","","",NA,"","NOT DONE","No PK sample to be collected, however safety sample will be collected as subject is dismissed from study","LAB1","PLASMA",NA,140,"Treatment Period 1 Day 4","Treatment Period 1","",NA,"72 h",72
"STUDY-01","PC","STUDY-01-3",1,"Tx Period 1","ANALYTE1","ANALYTE1","PHARMACOKINETIC CONCENTRATION","BQL","ng/mL","BQL",NA,"ng/mL","","","LAB1","PLASMA",0.1,110,"Treatment Period 1 Day 1","Treatment Period 1","2013-12-18T08:21",1,"Pre-dose",-0.05
"STUDY-01","PC","STUDY-01-3",2,"Tx Period 1","ANALYTE1","ANALYTE1","PHARMACOKINETIC CONCENTRATION","1987.5","ng/mL","1987.5",1987.5,"ng/mL","","","LAB1","PLASMA",0.1,110,"Treatment Period 1 Day 1","Treatment Period 1","2013-12-18T09:40",1,"0.5 h",0.5
"STUDY-01","PC","STUDY-01-3",3,"Tx Period 1","ANALYTE1","ANALYTE1","PHARMACOKINETIC CONCENTRATION","2475","ng/mL","2475",2475,"ng/mL","","","LAB1","PLASMA",0.1,110,"Treatment Period 1 Day 1","Treatment Period 1","2013-12-18T10:10",1,"1 h",1
"STUDY-01","PC","STUDY-01-3",4,"Tx Period 1","ANALYTE1","ANALYTE1","PHARMACOKINETIC CONCENTRATION","2125","ng/mL","2125",2125,"ng/mL","","","LAB1","PLASMA",0.1,110,"Treatment Period 1 Day 1","Treatment Period 1","2013-12-18T10:40",1,"1.5 h",1.5
"STUDY-01","PC","STUDY-01-3",5,"Tx Period 1","ANALYTE1","ANALYTE1","PHARMACOKINETIC CONCENTRATION","1925","ng/mL","1925",1925,"ng/mL","","","LAB1","PLASMA",0.1,110,"Treatment Period 1 Day 1","Treatment Period 1","2013-12-18T11:10",1,"2 h",2
"STUDY-01","PC","STUDY-01-3",6,"Tx Period 1","ANALYTE1","ANALYTE1","PHARMACOKINETIC CONCENTRATION","1525","ng/mL","1525",1525,"ng/mL","","","LAB1","PLASMA",0.1,110,"Treatment Period 1 Day 1","Treatment Period 1","2013-12-18T12:10",1,"3 h",3
"STUDY-01","PC","STUDY-01-3",7,"Tx Period 1","ANALYTE1","ANALYTE1","PHARMACOKINETIC CONCENTRATION","1201.25","ng/mL","1201.25",1201.25,"ng/mL","","","LAB1","PLASMA",0.1,110,"Treatment Period 1 Day 1","Treatment Period 1","2013-12-18T13:10",1,"4 h",4
"STUDY-01","PC","STUDY-01-3",8,"Tx Period 1","ANALYTE1","ANALYTE1","PHARMACOKINETIC CONCENTRATION","1052.5","ng/mL","1052.5",1052.5,"ng/mL","","","LAB1","PLASMA",0.1,110,"Treatment Period 1 Day 1","Treatment Period 1","2013-12-18T15:10",1,"6 h",6
"STUDY-01","PC","STUDY-01-3",9,"Tx Period 1","ANALYTE1","ANALYTE1","PHARMACOKINETIC CONCENTRATION","973.75","ng/mL","973.75",973.75,"ng/mL","","","LAB1","PLASMA",0.1,110,"Treatment Period 1 Day 1","Treatment Period 1","2013-12-18T17:10",1,"8 h",8
"STUDY-01","PC","STUDY-01-3",10,"Tx Period 1","ANALYTE1","ANALYTE1","PHARMACOKINETIC CONCENTRATION","720","ng/mL","720",720,"ng/mL","","","LAB1","PLASMA",0.1,110,"Treatment Period 1 Day 1","Treatment Period 1","2013-12-18T21:10",1,"12 h",12
"STUDY-01","PC","STUDY-01-3",11,"Tx Period 1","ANALYTE1","ANALYTE1","PHARMACOKINETIC CONCENTRATION","360","ng/mL","360",360,"ng/mL","","","LAB1","PLASMA",0.1,120,"Treatment Period 1 Day 2","Treatment Period 1","2013-12-19T09:10",2,"24 h",24
"STUDY-01","PC","STUDY-01-3",12,"Tx Period 1","ANALYTE1","ANALYTE1","PHARMACOKINETIC CONCENTRATION","206.25","ng/mL","206.25",206.25,"ng/mL","","","LAB1","PLASMA",0.1,120,"Treatment Period 1 Day 2","Treatment Period 1","2013-12-19T21:10",2,"36 h",36
"STUDY-01","PC","STUDY-01-3",13,"Tx Period 1","ANALYTE1","ANALYTE1","PHARMACOKINETIC CONCENTRATION","167.5","ng/mL","167.5",167.5,"ng/mL","","","LAB1","PLASMA",0.1,130,"Treatment Period 1 Day 3","Treatment Period 1","2013-12-20T09:10",3,"48 h",48
"STUDY-01","PC","STUDY-01-3",14,"Tx Period 1","ANALYTE1","ANALYTE1","PHARMACOKINETIC CONCENTRATION","84","ng/mL","84",84,"ng/mL","","","LAB1","PLASMA",0.1,140,"Treatment Period 1 Day 4","Treatment Period 1","2013-12-21T09:10",4,"72 h",72
"STUDY-01","PC","STUDY-01-3",15,"Tx Period 2","ANALYTE1","ANALYTE1","PHARMACOKINETIC CONCENTRATION","6.65","ng/mL","6.65",6.65,"ng/mL","","","LAB1","PLASMA",0.1,210,"Treatment Period 2 Day 1","Treatment Period 2","2013-12-28T08:20",11,"Pre-dose",-0.05
"STUDY-01","PC","STUDY-01-3",16,"Tx Period 2","ANALYTE1","ANALYTE1","PHARMACOKINETIC CONCENTRATION","1096.25","ng/mL","1096.25",1096.25,"ng/mL","","","LAB1","PLASMA",0.1,210,"Treatment Period 2 Day 1","Treatment Period 2","2013-12-28T09:40",11,"0.5 h",0.5
"STUDY-01","PC","STUDY-01-3",17,"Tx Period 2","ANALYTE1","ANALYTE1","PHARMACOKINETIC CONCENTRATION","1700","ng/mL","1700",1700,"ng/mL","","","LAB1","PLASMA",0.1,210,"Treatment Period 2 Day 1","Treatment Period 2","2013-12-28T10:10",11,"1 h",1
"STUDY-01","PC","STUDY-01-3",18,"Tx Period 2","ANALYTE1","ANALYTE1","PHARMACOKINETIC CONCENTRATION","1425","ng/mL","1425",1425,"ng/mL","","","LAB1","PLASMA",0.1,210,"Treatment Period 2 Day 1","Treatment Period 2","2013-12-28T10:40",11,"1.5 h",1.5
"STUDY-01","PC","STUDY-01-3",19,"Tx Period 2","ANALYTE1","ANALYTE1","PHARMACOKINETIC CONCENTRATION","1587.5","ng/mL","1587.5",1587.5,"ng/mL","","","LAB1","PLASMA",0.1,210,"Treatment Period 2 Day 1","Treatment Period 2","2013-12-28T11:10",11,"2 h",2
"STUDY-01","PC","STUDY-01-3",20,"Tx Period 2","ANALYTE1","ANALYTE1","PHARMACOKINETIC CONCENTRATION","1475","ng/mL","1475",1475,"ng/mL","","","LAB1","PLASMA",0.1,210,"Treatment Period 2 Day 1","Treatment Period 2","2013-12-28T12:10",11,"3 h",3
"STUDY-01","PC","STUDY-01-3",21,"Tx Period 2","ANALYTE1","ANALYTE1","PHARMACOKINETIC CONCENTRATION","1300","ng/mL","1300",1300,"ng/mL","","","LAB1","PLASMA",0.1,210,"Treatment Period 2 Day 1","Treatment Period 2","2013-12-28T13:10",11,"4 h",4
"STUDY-01","PC","STUDY-01-3",22,"Tx Period 2","ANALYTE1","ANALYTE1","PHARMACOKINETIC CONCENTRATION","1087.5","ng/mL","1087.5",1087.5,"ng/mL","","","LAB1","PLASMA",0.1,210,"Treatment Period 2 Day 1","Treatment Period 2","2013-12-28T15:10",11,"6 h",6
"STUDY-01","PC","STUDY-01-3",23,"Tx Period 2","ANALYTE1","ANALYTE1","PHARMACOKINETIC CONCENTRATION","865","ng/mL","865",865,"ng/mL","","","LAB1","PLASMA",0.1,210,"Treatment Period 2 Day 1","Treatment Period 2","2013-12-28T17:10",11,"8 h",8
"STUDY-01","PC","STUDY-01-3",24,"Tx Period 2","ANALYTE1","ANALYTE1","PHARMACOKINETIC CONCENTRATION","678.75","ng/mL","678.75",678.75,"ng/mL","","","LAB1","PLASMA",0.1,210,"Treatment Period 2 Day 1","Treatment Period 2","2013-12-28T21:10",11,"12 h",12
"STUDY-01","PC","STUDY-01-3",25,"Tx Period 2","ANALYTE1","ANALYTE1","PHARMACOKINETIC CONCENTRATION","420","ng/mL","420",420,"ng/mL","","","LAB1","PLASMA",0.1,220,"Treatment Period 2 Day 2","Treatment Period 2","2013-12-29T09:10",12,"24 h",24
"STUDY-01","PC","STUDY-01-3",26,"Tx Period 2","ANALYTE1","ANALYTE1","PHARMACOKINETIC CONCENTRATION","240","ng/mL","240",240,"ng/mL","","","LAB1","PLASMA",0.1,220,"Treatment Period 2 Day 2","Treatment Period 2","2013-12-29T21:10",12,"36 h",36
"STUDY-01","PC","STUDY-01-3",27,"Tx Period 2","ANALYTE1","ANALYTE1","PHARMACOKINETIC CONCENTRATION","208.75","ng/mL","208.75",208.75,"ng/mL","","","LAB1","PLASMA",0.1,230,"Treatment Period 2 Day 3","Treatment Period 2","2013-12-30T09:10",13,"48 h",48
"STUDY-01","PC","STUDY-01-3",28,"Tx Period 2","ANALYTE1","ANALYTE1","PHARMACOKINETIC CONCENTRATION","123.625","ng/mL","123.625",123.625,"ng/mL","","","LAB1","PLASMA",0.1,240,"Treatment Period 2 Day 4","Treatment Period 2","2013-12-31T09:10",14,"72 h",72
"STUDY-01","PC","STUDY-01-4",1,"Tx Period 1","ANALYTE1","ANALYTE1","PHARMACOKINETIC CONCENTRATION","BQL","ng/mL","BQL",NA,"ng/mL","","","LAB1","PLASMA",0.1,110,"Treatment Period 1 Day 1","Treatment Period 1","2013-12-18T08:24",1,"Pre-dose",-0.05
"STUDY-01","PC","STUDY-01-4",2,"Tx Period 1","ANALYTE1","ANALYTE1","PHARMACOKINETIC CONCENTRATION","1.2875","ng/mL","1.2875",1.2875,"ng/mL","","","LAB1","PLASMA",0.1,110,"Treatment Period 1 Day 1","Treatment Period 1","2013-12-18T09:45",1,"0.5 h",0.5
"STUDY-01","PC","STUDY-01-4",3,"Tx Period 1","ANALYTE1","ANALYTE1","PHARMACOKINETIC CONCENTRATION","99.375","ng/mL","99.375",99.375,"ng/mL","","","LAB1","PLASMA",0.1,110,"Treatment Period 1 Day 1","Treatment Period 1","2013-12-18T10:15",1,"1 h",1
"STUDY-01","PC","STUDY-01-4",4,"Tx Period 1","ANALYTE1","ANALYTE1","PHARMACOKINETIC CONCENTRATION","197.5","ng/mL","197.5",197.5,"ng/mL","","","LAB1","PLASMA",0.1,110,"Treatment Period 1 Day 1","Treatment Period 1","2013-12-18T10:47",1,"1.5 h",1.5
"STUDY-01","PC","STUDY-01-4",5,"Tx Period 1","ANALYTE1","ANALYTE1","PHARMACOKINETIC CONCENTRATION","328.75","ng/mL","328.75",328.75,"ng/mL","","","LAB1","PLASMA",0.1,110,"Treatment Period 1 Day 1","Treatment Period 1","2013-12-18T11:20",1,"2 h",2
"STUDY-01","PC","STUDY-01-4",6,"Tx Period 1","ANALYTE1","ANALYTE1","PHARMACOKINETIC CONCENTRATION","672.5","ng/mL","672.5",672.5,"ng/mL","","","LAB1","PLASMA",0.1,110,"Treatment Period 1 Day 1","Treatment Period 1","2013-12-18T12:20",1,"3 h",3
"STUDY-01","PC","STUDY-01-4",7,"Tx Period 1","ANALYTE1","ANALYTE1","PHARMACOKINETIC CONCENTRATION","882.5","ng/mL","882.5",882.5,"ng/mL","","","LAB1","PLASMA",0.1,110,"Treatment Period 1 Day 1","Treatment Period 1","2013-12-18T13:21",1,"4 h",4
"STUDY-01","PC","STUDY-01-4",8,"Tx Period 1","ANALYTE1","ANALYTE1","PHARMACOKINETIC CONCENTRATION","957.5","ng/mL","957.5",957.5,"ng/mL","","","LAB1","PLASMA",0.1,110,"Treatment Period 1 Day 1","Treatment Period 1","2013-12-18T15:20",1,"6 h",6
"STUDY-01","PC","STUDY-01-4",9,"Tx Period 1","ANALYTE1","ANALYTE1","PHARMACOKINETIC CONCENTRATION","777.5","ng/mL","777.5",777.5,"ng/mL","","","LAB1","PLASMA",0.1,110,"Treatment Period 1 Day 1","Treatment Period 1","2013-12-18T17:21",1,"8 h",8
"STUDY-01","PC","STUDY-01-4",10,"Tx Period 1","ANALYTE1","ANALYTE1","PHARMACOKINETIC CONCENTRATION","478.75","ng/mL","478.75",478.75,"ng/mL","","","LAB1","PLASMA",0.1,110,"Treatment Period 1 Day 1","Treatment Period 1","2013-12-18T21:16",1,"12 h",12
"STUDY-01","PC","STUDY-01-4",11,"Tx Period 1","ANALYTE1","ANALYTE1","PHARMACOKINETIC CONCENTRATION","242.5","ng/mL","242.5",242.5,"ng/mL","","","LAB1","PLASMA",0.1,120,"Treatment Period 1 Day 2","Treatment Period 1","2013-12-19T09:21",2,"24 h",24
"STUDY-01","PC","STUDY-01-4",12,"Tx Period 1","ANALYTE1","ANALYTE1","PHARMACOKINETIC CONCENTRATION","156.25","ng/mL","156.25",156.25,"ng/mL","","","LAB1","PLASMA",0.1,120,"Treatment Period 1 Day 2","Treatment Period 1","2013-12-19T21:15",2,"36 h",36
"STUDY-01","PC","STUDY-01-4",13,"Tx Period 1","ANALYTE1","ANALYTE1","PHARMACOKINETIC CONCENTRATION","111.125","ng/mL","111.125",111.125,"ng/mL","","","LAB1","PLASMA",0.1,130,"Treatment Period 1 Day 3","Treatment Period 1","2013-12-20T09:15",3,"48 h",48
"STUDY-01","PC","STUDY-01-4",14,"Tx Period 1","ANALYTE1","ANALYTE1","PHARMACOKINETIC CONCENTRATION","62.5","ng/mL","62.5",62.5,"ng/mL","","","LAB1","PLASMA",0.1,140,"Treatment Period 1 Day 4","Treatment Period 1","2013-12-21T09:15",4,"72 h",72
"STUDY-01","PC","STUDY-01-4",15,"Tx Period 2","ANALYTE1","ANALYTE1","PHARMACOKINETIC CONCENTRATION","2.95","ng/mL","2.95",2.95,"ng/mL","","","LAB1","PLASMA",0.1,210,"Treatment Period 2 Day 1","Treatment Period 2","2013-12-28T08:25",11,"Pre-dose",-0.05
"STUDY-01","PC","STUDY-01-4",16,"Tx Period 2","ANALYTE1","ANALYTE1","PHARMACOKINETIC CONCENTRATION","770","ng/mL","770",770,"ng/mL","","","LAB1","PLASMA",0.1,210,"Treatment Period 2 Day 1","Treatment Period 2","2013-12-28T09:45",11,"0.5 h",0.5
"STUDY-01","PC","STUDY-01-4",17,"Tx Period 2","ANALYTE1","ANALYTE1","PHARMACOKINETIC CONCENTRATION","1147.5","ng/mL","1147.5",1147.5,"ng/mL","","","LAB1","PLASMA",0.1,210,"Treatment Period 2 Day 1","Treatment Period 2","2013-12-28T10:15",11,"1 h",1
"STUDY-01","PC","STUDY-01-4",18,"Tx Period 2","ANALYTE1","ANALYTE1","PHARMACOKINETIC CONCENTRATION","1175","ng/mL","1175",1175,"ng/mL","","","LAB1","PLASMA",0.1,210,"Treatment Period 2 Day 1","Treatment Period 2","2013-12-28T10:45",11,"1.5 h",1.5
"STUDY-01","PC","STUDY-01-4",19,"Tx Period 2","ANALYTE1","ANALYTE1","PHARMACOKINETIC CONCENTRATION","1081.25","ng/mL","1081.25",1081.25,"ng/mL","","","LAB1","PLASMA",0.1,210,"Treatment Period 2 Day 1","Treatment Period 2","2013-12-28T11:15",11,"2 h",2
"STUDY-01","PC","STUDY-01-4",20,"Tx Period 2","ANALYTE1","ANALYTE1","PHARMACOKINETIC CONCENTRATION","900","ng/mL","900",900,"ng/mL","","","LAB1","PLASMA",0.1,210,"Treatment Period 2 Day 1","Treatment Period 2","2013-12-28T12:15",11,"3 h",3
"STUDY-01","PC","STUDY-01-4",21,"Tx Period 2","ANALYTE1","ANALYTE1","PHARMACOKINETIC CONCENTRATION","720","ng/mL","720",720,"ng/mL","","","LAB1","PLASMA",0.1,210,"Treatment Period 2 Day 1","Treatment Period 2","2013-12-28T13:15",11,"4 h",4
"STUDY-01","PC","STUDY-01-4",22,"Tx Period 2","ANALYTE1","ANALYTE1","PHARMACOKINETIC CONCENTRATION","707.5","ng/mL","707.5",707.5,"ng/mL","","","LAB1","PLASMA",0.1,210,"Treatment Period 2 Day 1","Treatment Period 2","2013-12-28T15:17",11,"6 h",6
"STUDY-01","PC","STUDY-01-4",23,"Tx Period 2","ANALYTE1","ANALYTE1","PHARMACOKINETIC CONCENTRATION","608.75","ng/mL","608.75",608.75,"ng/mL","","","LAB1","PLASMA",0.1,210,"Treatment Period 2 Day 1","Treatment Period 2","2013-12-28T17:15",11,"8 h",8
"STUDY-01","PC","STUDY-01-4",24,"Tx Period 2","ANALYTE1","ANALYTE1","PHARMACOKINETIC CONCENTRATION","417.5","ng/mL","417.5",417.5,"ng/mL","","","LAB1","PLASMA",0.1,210,"Treatment Period 2 Day 1","Treatment Period 2","2013-12-28T21:15",11,"12 h",12
"STUDY-01","PC","STUDY-01-4",25,"Tx Period 2","ANALYTE1","ANALYTE1","PHARMACOKINETIC CONCENTRATION","218.75","ng/mL","218.75",218.75,"ng/mL","","","LAB1","PLASMA",0.1,220,"Treatment Period 2 Day 2","Treatment Period 2","2013-12-29T09:16",12,"24 h",24
"STUDY-01","PC","STUDY-01-4",26,"Tx Period 2","ANALYTE1","ANALYTE1","PHARMACOKINETIC CONCENTRATION","143.75","ng/mL","143.75",143.75,"ng/mL","","","LAB1","PLASMA",0.1,220,"Treatment Period 2 Day 2","Treatment Period 2","2013-12-29T21:15",12,"36 h",36
"STUDY-01","PC","STUDY-01-4",27,"Tx Period 2","ANALYTE1","ANALYTE1","PHARMACOKINETIC CONCENTRATION","114.375","ng/mL","114.375",114.375,"ng/mL","","","LAB1","PLASMA",0.1,230,"Treatment Period 2 Day 3","Treatment Period 2","2013-12-30T09:15",13,"48 h",48
"STUDY-01","PC","STUDY-01-4",28,"Tx Period 2","ANALYTE1","ANALYTE1","PHARMACOKINETIC CONCENTRATION","61.375","ng/mL","61.375",61.375,"ng/mL","","","LAB1","PLASMA",0.1,240,"Treatment Period 2 Day 4","Treatment Period 2","2013-12-31T09:15",14,"72 h",72
"STUDY-01","PC","STUDY-01-5",1,"Tx Period 1","ANALYTE1","ANALYTE1","PHARMACOKINETIC CONCENTRATION","BQL","ng/mL","BQL",NA,"ng/mL","","","LAB1","PLASMA",0.1,110,"Treatment Period 1 Day 1","Treatment Period 1","2013-12-18T08:27",1,"Pre-dose",-0.05
"STUDY-01","PC","STUDY-01-5",2,"Tx Period 1","ANALYTE1","ANALYTE1","PHARMACOKINETIC CONCENTRATION","25.5","ng/mL","25.5",25.5,"ng/mL","","","LAB1","PLASMA",0.1,110,"Treatment Period 1 Day 1","Treatment Period 1","2013-12-18T09:50",1,"0.5 h",0.5
"STUDY-01","PC","STUDY-01-5",3,"Tx Period 1","ANALYTE1","ANALYTE1","PHARMACOKINETIC CONCENTRATION","360","ng/mL","360",360,"ng/mL","","","LAB1","PLASMA",0.1,110,"Treatment Period 1 Day 1","Treatment Period 1","2013-12-18T10:20",1,"1 h",1
"STUDY-01","PC","STUDY-01-5",4,"Tx Period 1","ANALYTE1","ANALYTE1","PHARMACOKINETIC CONCENTRATION","441.25","ng/mL","441.25",441.25,"ng/mL","","","LAB1","PLASMA",0.1,110,"Treatment Period 1 Day 1","Treatment Period 1","2013-12-18T10:50",1,"1.5 h",1.5
"STUDY-01","PC","STUDY-01-5",5,"Tx Period 1","ANALYTE1","ANALYTE1","PHARMACOKINETIC CONCENTRATION","506.25","ng/mL","506.25",506.25,"ng/mL","","","LAB1","PLASMA",0.1,110,"Treatment Period 1 Day 1","Treatment Period 1","2013-12-18T11:20",1,"2 h",2
"STUDY-01","PC","STUDY-01-5",6,"Tx Period 1","ANALYTE1","ANALYTE1","PHARMACOKINETIC CONCENTRATION","557.5","ng/mL","557.5",557.5,"ng/mL","","","LAB1","PLASMA",0.1,110,"Treatment Period 1 Day 1","Treatment Period 1","2013-12-18T12:20",1,"3 h",3
"STUDY-01","PC","STUDY-01-5",7,"Tx Period 1","ANALYTE1","ANALYTE1","PHARMACOKINETIC CONCENTRATION","562.5","ng/mL","562.5",562.5,"ng/mL","","","LAB1","PLASMA",0.1,110,"Treatment Period 1 Day 1","Treatment Period 1","2013-12-18T13:20",1,"4 h",4
"STUDY-01","PC","STUDY-01-5",8,"Tx Period 1","ANALYTE1","ANALYTE1","PHARMACOKINETIC CONCENTRATION","565","ng/mL","565",565,"ng/mL","","","LAB1","PLASMA",0.1,110,"Treatment Period 1 Day 1","Treatment Period 1","2013-12-18T15:20",1,"6 h",6
"STUDY-01","PC","STUDY-01-5",9,"Tx Period 1","ANALYTE1","ANALYTE1","PHARMACOKINETIC CONCENTRATION","467.5","ng/mL","467.5",467.5,"ng/mL","","","LAB1","PLASMA",0.1,110,"Treatment Period 1 Day 1","Treatment Period 1","2013-12-18T17:25",1,"8 h",8
"STUDY-01","PC","STUDY-01-5",10,"Tx Period 1","ANALYTE1","ANALYTE1","PHARMACOKINETIC CONCENTRATION","296.25","ng/mL","296.25",296.25,"ng/mL","","","LAB1","PLASMA",0.1,110,"Treatment Period 1 Day 1","Treatment Period 1","2013-12-18T21:20",1,"12 h",12
"STUDY-01","PC","STUDY-01-5",11,"Tx Period 1","ANALYTE1","ANALYTE1","PHARMACOKINETIC CONCENTRATION","218.75","ng/mL","218.75",218.75,"ng/mL","","","LAB1","PLASMA",0.1,120,"Treatment Period 1 Day 2","Treatment Period 1","2013-12-19T09:20",2,"24 h",24
"STUDY-01","PC","STUDY-01-5",12,"Tx Period 1","ANALYTE1","ANALYTE1","PHARMACOKINETIC CONCENTRATION","112","ng/mL","112",112,"ng/mL","","","LAB1","PLASMA",0.1,120,"Treatment Period 1 Day 2","Treatment Period 1","2013-12-19T21:20",2,"36 h",36
"STUDY-01","PC","STUDY-01-5",13,"Tx Period 1","ANALYTE1","ANALYTE1","PHARMACOKINETIC CONCENTRATION","85.875","ng/mL","85.875",85.875,"ng/mL","","","LAB1","PLASMA",0.1,130,"Treatment Period 1 Day 3","Treatment Period 1","2013-12-20T09:20",3,"48 h",48
"STUDY-01","PC","STUDY-01-5",14,"Tx Period 1","ANALYTE1","ANALYTE1","PHARMACOKINETIC CONCENTRATION","46.375","ng/mL","46.375",46.375,"ng/mL","","","LAB1","PLASMA",0.1,140,"Treatment Period 1 Day 4","Treatment Period 1","2013-12-21T09:20",4,"72 h",72
"STUDY-01","PC","STUDY-01-5",15,"Tx Period 2","ANALYTE1","ANALYTE1","PHARMACOKINETIC CONCENTRATION","1.3375","ng/mL","1.3375",1.3375,"ng/mL","","","LAB1","PLASMA",0.1,210,"Treatment Period 2 Day 1","Treatment Period 2","2013-12-28T08:30",11,"Pre-dose",-0.05
"STUDY-01","PC","STUDY-01-5",16,"Tx Period 2","ANALYTE1","ANALYTE1","PHARMACOKINETIC CONCENTRATION","39.875","ng/mL","39.875",39.875,"ng/mL","","","LAB1","PLASMA",0.1,210,"Treatment Period 2 Day 1","Treatment Period 2","2013-12-28T09:50",11,"0.5 h",0.5
"STUDY-01","PC","STUDY-01-5",17,"Tx Period 2","ANALYTE1","ANALYTE1","PHARMACOKINETIC CONCENTRATION","500","ng/mL","500",500,"ng/mL","","","LAB1","PLASMA",0.1,210,"Treatment Period 2 Day 1","Treatment Period 2","2013-12-28T10:20",11,"1 h",1
"STUDY-01","PC","STUDY-01-5",18,"Tx Period 2","ANALYTE1","ANALYTE1","PHARMACOKINETIC CONCENTRATION","512.5","ng/mL","512.5",512.5,"ng/mL","","","LAB1","PLASMA",0.1,210,"Treatment Period 2 Day 1","Treatment Period 2","2013-12-28T10:50",11,"1.5 h",1.5
"STUDY-01","PC","STUDY-01-5",19,"Tx Period 2","ANALYTE1","ANALYTE1","PHARMACOKINETIC CONCENTRATION","647.5","ng/mL","647.5",647.5,"ng/mL","","","LAB1","PLASMA",0.1,210,"Treatment Period 2 Day 1","Treatment Period 2","2013-12-28T11:20",11,"2 h",2
"STUDY-01","PC","STUDY-01-5",20,"Tx Period 2","ANALYTE1","ANALYTE1","PHARMACOKINETIC CONCENTRATION","685","ng/mL","685",685,"ng/mL","","","LAB1","PLASMA",0.1,210,"Treatment Period 2 Day 1","Treatment Period 2","2013-12-28T12:20",11,"3 h",3
"STUDY-01","PC","STUDY-01-5",21,"Tx Period 2","ANALYTE1","ANALYTE1","PHARMACOKINETIC CONCENTRATION","577.5","ng/mL","577.5",577.5,"ng/mL","","","LAB1","PLASMA",0.1,210,"Treatment Period 2 Day 1","Treatment Period 2","2013-12-28T13:20",11,"4 h",4
"STUDY-01","PC","STUDY-01-5",22,"Tx Period 2","ANALYTE1","ANALYTE1","PHARMACOKINETIC CONCENTRATION","432.5","ng/mL","432.5",432.5,"ng/mL","","","LAB1","PLASMA",0.1,210,"Treatment Period 2 Day 1","Treatment Period 2","2013-12-28T15:20",11,"6 h",6
"STUDY-01","PC","STUDY-01-5",23,"Tx Period 2","ANALYTE1","ANALYTE1","PHARMACOKINETIC CONCENTRATION","365","ng/mL","365",365,"ng/mL","","","LAB1","PLASMA",0.1,210,"Treatment Period 2 Day 1","Treatment Period 2","2013-12-28T17:20",11,"8 h",8
"STUDY-01","PC","STUDY-01-5",24,"Tx Period 2","ANALYTE1","ANALYTE1","PHARMACOKINETIC CONCENTRATION","251.25","ng/mL","251.25",251.25,"ng/mL","","","LAB1","PLASMA",0.1,210,"Treatment Period 2 Day 1","Treatment Period 2","2013-12-28T21:20",11,"12 h",12
"STUDY-01","PC","STUDY-01-5",25,"Tx Period 2","ANALYTE1","ANALYTE1","PHARMACOKINETIC CONCENTRATION","141.25","ng/mL","141.25",141.25,"ng/mL","","","LAB1","PLASMA",0.1,220,"Treatment Period 2 Day 2","Treatment Period 2","2013-12-29T09:20",12,"24 h",24
"STUDY-01","PC","STUDY-01-5",26,"Tx Period 2","ANALYTE1","ANALYTE1","PHARMACOKINETIC CONCENTRATION","72","ng/mL","72",72,"ng/mL","","","LAB1","PLASMA",0.1,220,"Treatment Period 2 Day 2","Treatment Period 2","2013-12-29T21:20",12,"36 h",36
"STUDY-01","PC","STUDY-01-5",27,"Tx Period 2","ANALYTE1","ANALYTE1","PHARMACOKINETIC CONCENTRATION","67","ng/mL","67",67,"ng/mL","","","LAB1","PLASMA",0.1,230,"Treatment Period 2 Day 3","Treatment Period 2","2013-12-30T09:20",13,"48 h",48
"STUDY-01","PC","STUDY-01-5",28,"Tx Period 2","ANALYTE1","ANALYTE1","PHARMACOKINETIC CONCENTRATION","34.125","ng/mL","34.125",34.125,"ng/mL","","","LAB1","PLASMA",0.1,240,"Treatment Period 2 Day 4","Treatment Period 2","2013-12-31T09:20",14,"72 h",72
"STUDY-01","PC","STUDY-01-6",1,"Tx Period 1","ANALYTE1","ANALYTE1","PHARMACOKINETIC CONCENTRATION","BQL","ng/mL","BQL",NA,"ng/mL","","","LAB1","PLASMA",0.1,110,"Treatment Period 1 Day 1","Treatment Period 1","2013-12-18T08:32",1,"Pre-dose",-0.05
"STUDY-01","PC","STUDY-01-6",2,"Tx Period 1","ANALYTE1","ANALYTE1","PHARMACOKINETIC CONCENTRATION","39.75","ng/mL","39.75",39.75,"ng/mL","","","LAB1","PLASMA",0.1,110,"Treatment Period 1 Day 1","Treatment Period 1","2013-12-18T09:55",1,"0.5 h",0.5
"STUDY-01","PC","STUDY-01-6",3,"Tx Period 1","ANALYTE1","ANALYTE1","PHARMACOKINETIC CONCENTRATION","215","ng/mL","215",215,"ng/mL","","","LAB1","PLASMA",0.1,110,"Treatment Period 1 Day 1","Treatment Period 1","2013-12-18T10:25",1,"1 h",1
"STUDY-01","PC","STUDY-01-6",4,"Tx Period 1","ANALYTE1","ANALYTE1","PHARMACOKINETIC CONCENTRATION","292.5","ng/mL","292.5",292.5,"ng/mL","","","LAB1","PLASMA",0.1,110,"Treatment Period 1 Day 1","Treatment Period 1","2013-12-18T10:55",1,"1.5 h",1.5
"STUDY-01","PC","STUDY-01-6",5,"Tx Period 1","ANALYTE1","ANALYTE1","PHARMACOKINETIC CONCENTRATION","397.5","ng/mL","397.5",397.5,"ng/mL","","","LAB1","PLASMA",0.1,110,"Treatment Period 1 Day 1","Treatment Period 1","2013-12-18T11:25",1,"2 h",2
"STUDY-01","PC","STUDY-01-6",6,"Tx Period 1","ANALYTE1","ANALYTE1","PHARMACOKINETIC CONCENTRATION","432.5","ng/mL","432.5",432.5,"ng/mL","","","LAB1","PLASMA",0.1,110,"Treatment Period 1 Day 1","Treatment Period 1","2013-12-18T12:25",1,"3 h",3
"STUDY-01","PC","STUDY-01-6",7,"Tx Period 1","ANALYTE1","ANALYTE1","PHARMACOKINETIC CONCENTRATION","465","ng/mL","465",465,"ng/mL","","","LAB1","PLASMA",0.1,110,"Treatment Period 1 Day 1","Treatment Period 1","2013-12-18T13:25",1,"4 h",4
"STUDY-01","PC","STUDY-01-6",8,"Tx Period 1","ANALYTE1","ANALYTE1","PHARMACOKINETIC CONCENTRATION","502.5","ng/mL","502.5",502.5,"ng/mL","","","LAB1","PLASMA",0.1,110,"Treatment Period 1 Day 1","Treatment Period 1","2013-12-18T15:25",1,"6 h",6
"STUDY-01","PC","STUDY-01-6",9,"Tx Period 1","ANALYTE1","ANALYTE1","PHARMACOKINETIC CONCENTRATION","390","ng/mL","390",390,"ng/mL","","","LAB1","PLASMA",0.1,110,"Treatment Period 1 Day 1","Treatment Period 1","2013-12-18T17:26",1,"8 h",8
"STUDY-01","PC","STUDY-01-6",10,"Tx Period 1","ANALYTE1","ANALYTE1","PHARMACOKINETIC CONCENTRATION","256.25","ng/mL","256.25",256.25,"ng/mL","","","LAB1","PLASMA",0.1,110,"Treatment Period 1 Day 1","Treatment Period 1","2013-12-18T21:25",1,"12 h",12
"STUDY-01","PC","STUDY-01-6",11,"Tx Period 1","ANALYTE1","ANALYTE1","PHARMACOKINETIC CONCENTRATION","141.25","ng/mL","141.25",141.25,"ng/mL","","","LAB1","PLASMA",0.1,120,"Treatment Period 1 Day 2","Treatment Period 1","2013-12-19T09:26",2,"24 h",24
"STUDY-01","PC","STUDY-01-6",12,"Tx Period 1","ANALYTE1","ANALYTE1","PHARMACOKINETIC CONCENTRATION","75","ng/mL","75",75,"ng/mL","","","LAB1","PLASMA",0.1,120,"Treatment Period 1 Day 2","Treatment Period 1","2013-12-19T21:25",2,"36 h",36
"STUDY-01","PC","STUDY-01-6",13,"Tx Period 1","ANALYTE1","ANALYTE1","PHARMACOKINETIC CONCENTRATION","56.625","ng/mL","56.625",56.625,"ng/mL","","","LAB1","PLASMA",0.1,130,"Treatment Period 1 Day 3","Treatment Period 1","2013-12-20T09:25",3,"48 h",48
"STUDY-01","PC","STUDY-01-6",14,"Tx Period 1","ANALYTE1","ANALYTE1","PHARMACOKINETIC CONCENTRATION","40.375","ng/mL","40.375",40.375,"ng/mL","","","LAB1","PLASMA",0.1,140,"Treatment Period 1 Day 4","Treatment Period 1","2013-12-21T09:25",4,"72 h",72
"STUDY-01","PC","STUDY-01-6",15,"Tx Period 2","ANALYTE1","ANALYTE1","PHARMACOKINETIC CONCENTRATION","1.725","ng/mL","1.725",1.725,"ng/mL","","","LAB1","PLASMA",0.1,210,"Treatment Period 2 Day 1","Treatment Period 2","2013-12-28T08:35",11,"Pre-dose",-0.05
"STUDY-01","PC","STUDY-01-6",16,"Tx Period 2","ANALYTE1","ANALYTE1","PHARMACOKINETIC CONCENTRATION","73.75","ng/mL","73.75",73.75,"ng/mL","","","LAB1","PLASMA",0.1,210,"Treatment Period 2 Day 1","Treatment Period 2","2013-12-28T09:55",11,"0.5 h",0.5
"STUDY-01","PC","STUDY-01-6",17,"Tx Period 2","ANALYTE1","ANALYTE1","PHARMACOKINETIC CONCENTRATION","166.25","ng/mL","166.25",166.25,"ng/mL","","","LAB1","PLASMA",0.1,210,"Treatment Period 2 Day 1","Treatment Period 2","2013-12-28T10:25",11,"1 h",1
"STUDY-01","PC","STUDY-01-6",18,"Tx Period 2","ANALYTE1","ANALYTE1","PHARMACOKINETIC CONCENTRATION","246.25","ng/mL","246.25",246.25,"ng/mL","","","LAB1","PLASMA",0.1,210,"Treatment Period 2 Day 1","Treatment Period 2","2013-12-28T10:55",11,"1.5 h",1.5
"STUDY-01","PC","STUDY-01-6",19,"Tx Period 2","ANALYTE1","ANALYTE1","PHARMACOKINETIC CONCENTRATION","318.75","ng/mL","318.75",318.75,"ng/mL","","","LAB1","PLASMA",0.1,210,"Treatment Period 2 Day 1","Treatment Period 2","2013-12-28T11:25",11,"2 h",2
"STUDY-01","PC","STUDY-01-6",20,"Tx Period 2","ANALYTE1","ANALYTE1","PHARMACOKINETIC CONCENTRATION","410","ng/mL","410",410,"ng/mL","","","LAB1","PLASMA",0.1,210,"Treatment Period 2 Day 1","Treatment Period 2","2013-12-28T12:25",11,"3 h",3
"STUDY-01","PC","STUDY-01-6",21,"Tx Period 2","ANALYTE1","ANALYTE1","PHARMACOKINETIC CONCENTRATION","387.5","ng/mL","387.5",387.5,"ng/mL","","","LAB1","PLASMA",0.1,210,"Treatment Period 2 Day 1","Treatment Period 2","2013-12-28T13:25",11,"4 h",4
"STUDY-01","PC","STUDY-01-6",22,"Tx Period 2","ANALYTE1","ANALYTE1","PHARMACOKINETIC CONCENTRATION","420","ng/mL","420",420,"ng/mL","","","LAB1","PLASMA",0.1,210,"Treatment Period 2 Day 1","Treatment Period 2","2013-12-28T15:25",11,"6 h",6
"STUDY-01","PC","STUDY-01-6",23,"Tx Period 2","ANALYTE1","ANALYTE1","PHARMACOKINETIC CONCENTRATION","362.5","ng/mL","362.5",362.5,"ng/mL","","","LAB1","PLASMA",0.1,210,"Treatment Period 2 Day 1","Treatment Period 2","2013-12-28T17:25",11,"8 h",8
"STUDY-01","PC","STUDY-01-6",24,"Tx Period 2","ANALYTE1","ANALYTE1","PHARMACOKINETIC CONCENTRATION","255","ng/mL","255",255,"ng/mL","","","LAB1","PLASMA",0.1,210,"Treatment Period 2 Day 1","Treatment Period 2","2013-12-28T21:25",11,"12 h",12
"STUDY-01","PC","STUDY-01-6",25,"Tx Period 2","ANALYTE1","ANALYTE1","PHARMACOKINETIC CONCENTRATION","131.25","ng/mL","131.25",131.25,"ng/mL","","","LAB1","PLASMA",0.1,220,"Treatment Period 2 Day 2","Treatment Period 2","2013-12-29T09:25",12,"24 h",24
"STUDY-01","PC","STUDY-01-6",26,"Tx Period 2","ANALYTE1","ANALYTE1","PHARMACOKINETIC CONCENTRATION","88.75","ng/mL","88.75",88.75,"ng/mL","","","LAB1","PLASMA",0.1,220,"Treatment Period 2 Day 2","Treatment Period 2","2013-12-29T21:25",12,"36 h",36
"STUDY-01","PC","STUDY-01-6",27,"Tx Period 2","ANALYTE1","ANALYTE1","PHARMACOKINETIC CONCENTRATION","83.125","ng/mL","83.125",83.125,"ng/mL","","","LAB1","PLASMA",0.1,230,"Treatment Period 2 Day 3","Treatment Period 2","2013-12-30T09:25",13,"48 h",48
"STUDY-01","PC","STUDY-01-6",28,"Tx Period 2","ANALYTE1","ANALYTE1","PHARMACOKINETIC CONCENTRATION","44.5","ng/mL","44.5",44.5,"ng/mL","","","LAB1","PLASMA",0.1,240,"Treatment Period 2 Day 4","Treatment Period 2","2013-12-31T09:25",14,"72 h",72
"STUDY-01","PC","STUDY-01-7",1,"Tx Period 1","ANALYTE1","ANALYTE1","PHARMACOKINETIC CONCENTRATION","BQL","ng/mL","BQL",NA,"ng/mL","","","LAB1","PLASMA",0.1,110,"Treatment Period 1 Day 1","Treatment Period 1","2013-12-18T08:35",1,"Pre-dose",-0.05
"STUDY-01","PC","STUDY-01-7",2,"Tx Period 1","ANALYTE1","ANALYTE1","PHARMACOKINETIC CONCENTRATION","80.75","ng/mL","80.75",80.75,"ng/mL","","","LAB1","PLASMA",0.1,110,"Treatment Period 1 Day 1","Treatment Period 1","2013-12-18T10:00",1,"0.5 h",0.5
"STUDY-01","PC","STUDY-01-7",3,"Tx Period 1","ANALYTE1","ANALYTE1","PHARMACOKINETIC CONCENTRATION","326.25","ng/mL","326.25",326.25,"ng/mL","","","LAB1","PLASMA",0.1,110,"Treatment Period 1 Day 1","Treatment Period 1","2013-12-18T10:30",1,"1 h",1
"STUDY-01","PC","STUDY-01-7",4,"Tx Period 1","ANALYTE1","ANALYTE1","PHARMACOKINETIC CONCENTRATION","436.25","ng/mL","436.25",436.25,"ng/mL","","","LAB1","PLASMA",0.1,110,"Treatment Period 1 Day 1","Treatment Period 1","2013-12-18T11:00",1,"1.5 h",1.5
"STUDY-01","PC","STUDY-01-7",5,"Tx Period 1","ANALYTE1","ANALYTE1","PHARMACOKINETIC CONCENTRATION","640","ng/mL","640",640,"ng/mL","","","LAB1","PLASMA",0.1,110,"Treatment Period 1 Day 1","Treatment Period 1","2013-12-18T11:30",1,"2 h",2
"STUDY-01","PC","STUDY-01-7",6,"Tx Period 1","ANALYTE1","ANALYTE1","PHARMACOKINETIC CONCENTRATION","797.5","ng/mL","797.5",797.5,"ng/mL","","","LAB1","PLASMA",0.1,110,"Treatment Period 1 Day 1","Treatment Period 1","2013-12-18T12:30",1,"3 h",3
"STUDY-01","PC","STUDY-01-7",7,"Tx Period 1","ANALYTE1","ANALYTE1","PHARMACOKINETIC CONCENTRATION","876.25","ng/mL","876.25",876.25,"ng/mL","","","LAB1","PLASMA",0.1,110,"Treatment Period 1 Day 1","Treatment Period 1","2013-12-18T13:30",1,"4 h",4
"STUDY-01","PC","STUDY-01-7",8,"Tx Period 1","ANALYTE1","ANALYTE1","PHARMACOKINETIC CONCENTRATION","798.75","ng/mL","798.75",798.75,"ng/mL","","","LAB1","PLASMA",0.1,110,"Treatment Period 1 Day 1","Treatment Period 1","2013-12-18T15:30",1,"6 h",6
"STUDY-01","PC","STUDY-01-7",9,"Tx Period 1","ANALYTE1","ANALYTE1","PHARMACOKINETIC CONCENTRATION","747.5","ng/mL","747.5",747.5,"ng/mL","","","LAB1","PLASMA",0.1,110,"Treatment Period 1 Day 1","Treatment Period 1","2013-12-18T17:30",1,"8 h",8
"STUDY-01","PC","STUDY-01-7",10,"Tx Period 1","ANALYTE1","ANALYTE1","PHARMACOKINETIC CONCENTRATION","542.5","ng/mL","542.5",542.5,"ng/mL","","","LAB1","PLASMA",0.1,110,"Treatment Period 1 Day 1","Treatment Period 1","2013-12-18T21:30",1,"12 h",12
"STUDY-01","PC","STUDY-01-7",11,"Tx Period 1","ANALYTE1","ANALYTE1","PHARMACOKINETIC CONCENTRATION","311.25","ng/mL","311.25",311.25,"ng/mL","","","LAB1","PLASMA",0.1,120,"Treatment Period 1 Day 2","Treatment Period 1","2013-12-19T09:30",2,"24 h",24
"STUDY-01","PC","STUDY-01-7",12,"Tx Period 1","ANALYTE1","ANALYTE1","PHARMACOKINETIC CONCENTRATION","176.25","ng/mL","176.25",176.25,"ng/mL","","","LAB1","PLASMA",0.1,120,"Treatment Period 1 Day 2","Treatment Period 1","2013-12-19T21:30",2,"36 h",36
"STUDY-01","PC","STUDY-01-7",13,"Tx Period 1","ANALYTE1","ANALYTE1","PHARMACOKINETIC CONCENTRATION","162.5","ng/mL","162.5",162.5,"ng/mL","","","LAB1","PLASMA",0.1,130,"Treatment Period 1 Day 3","Treatment Period 1","2013-12-20T09:30",3,"48 h",48
"STUDY-01","PC","STUDY-01-7",14,"Tx Period 1","ANALYTE1","ANALYTE1","PHARMACOKINETIC CONCENTRATION","82.25","ng/mL","82.25",82.25,"ng/mL","","","LAB1","PLASMA",0.1,140,"Treatment Period 1 Day 4","Treatment Period 1","2013-12-21T09:30",4,"72 h",72
"STUDY-01","PC","STUDY-01-8",1,"Tx Period 1","ANALYTE1","ANALYTE1","PHARMACOKINETIC CONCENTRATION","BQL","ng/mL","BQL",NA,"ng/mL","","","LAB1","PLASMA",0.1,110,"Treatment Period 1 Day 1","Treatment Period 1","2013-12-18T08:48",1,"Pre-dose",-0.05
"STUDY-01","PC","STUDY-01-8",2,"Tx Period 1","ANALYTE1","ANALYTE1","PHARMACOKINETIC CONCENTRATION","138.75","ng/mL","138.75",138.75,"ng/mL","","","LAB1","PLASMA",0.1,110,"Treatment Period 1 Day 1","Treatment Period 1","2013-12-18T10:07",1,"0.5 h",0.5
"STUDY-01","PC","STUDY-01-8",3,"Tx Period 1","ANALYTE1","ANALYTE1","PHARMACOKINETIC CONCENTRATION","765","ng/mL","765",765,"ng/mL","","","LAB1","PLASMA",0.1,110,"Treatment Period 1 Day 1","Treatment Period 1","2013-12-18T10:35",1,"1 h",1
"STUDY-01","PC","STUDY-01-8",4,"Tx Period 1","ANALYTE1","ANALYTE1","PHARMACOKINETIC CONCENTRATION","1387.5","ng/mL","1387.5",1387.5,"ng/mL","","","LAB1","PLASMA",0.1,110,"Treatment Period 1 Day 1","Treatment Period 1","2013-12-18T11:05",1,"1.5 h",1.5
"STUDY-01","PC","STUDY-01-8",5,"Tx Period 1","ANALYTE1","ANALYTE1","PHARMACOKINETIC CONCENTRATION","1156.25","ng/mL","1156.25",1156.25,"ng/mL","","","LAB1","PLASMA",0.1,110,"Treatment Period 1 Day 1","Treatment Period 1","2013-12-18T11:44",1,"2 h",2
"STUDY-01","PC","STUDY-01-8",6,"Tx Period 1","ANALYTE1","ANALYTE1","PHARMACOKINETIC CONCENTRATION","1026.25","ng/mL","1026.25",1026.25,"ng/mL","","","LAB1","PLASMA",0.1,110,"Treatment Period 1 Day 1","Treatment Period 1","2013-12-18T12:35",1,"3 h",3
"STUDY-01","PC","STUDY-01-8",7,"Tx Period 1","ANALYTE1","ANALYTE1","PHARMACOKINETIC CONCENTRATION","830","ng/mL","830",830,"ng/mL","","","LAB1","PLASMA",0.1,110,"Treatment Period 1 Day 1","Treatment Period 1","2013-12-18T13:40",1,"4 h",4
"STUDY-01","PC","STUDY-01-8",8,"Tx Period 1","ANALYTE1","ANALYTE1","PHARMACOKINETIC CONCENTRATION","786.25","ng/mL","786.25",786.25,"ng/mL","","","LAB1","PLASMA",0.1,110,"Treatment Period 1 Day 1","Treatment Period 1","2013-12-18T15:37",1,"6 h",6
"STUDY-01","PC","STUDY-01-8",9,"Tx Period 1","ANALYTE1","ANALYTE1","PHARMACOKINETIC CONCENTRATION","706.25","ng/mL","706.25",706.25,"ng/mL","","","LAB1","PLASMA",0.1,110,"Treatment Period 1 Day 1","Treatment Period 1","2013-12-18T17:36",1,"8 h",8
"STUDY-01","PC","STUDY-01-8",10,"Tx Period 1","ANALYTE1","ANALYTE1","PHARMACOKINETIC CONCENTRATION","551.25","ng/mL","551.25",551.25,"ng/mL","","","LAB1","PLASMA",0.1,110,"Treatment Period 1 Day 1","Treatment Period 1","2013-12-18T21:41",1,"12 h",12
"STUDY-01","PC","STUDY-01-8",11,"Tx Period 1","ANALYTE1","ANALYTE1","PHARMACOKINETIC CONCENTRATION","318.75","ng/mL","318.75",318.75,"ng/mL","","","LAB1","PLASMA",0.1,120,"Treatment Period 1 Day 2","Treatment Period 1","2013-12-19T09:35",2,"24 h",24
"STUDY-01","PC","STUDY-01-8",12,"Tx Period 1","ANALYTE1","ANALYTE1","PHARMACOKINETIC CONCENTRATION","227.5","ng/mL","227.5",227.5,"ng/mL","","","LAB1","PLASMA",0.1,120,"Treatment Period 1 Day 2","Treatment Period 1","2013-12-19T21:35",2,"36 h",36
"STUDY-01","PC","STUDY-01-8",13,"Tx Period 1","ANALYTE1","ANALYTE1","PHARMACOKINETIC CONCENTRATION","165","ng/mL","165",165,"ng/mL","","","LAB1","PLASMA",0.1,130,"Treatment Period 1 Day 3","Treatment Period 1","2013-12-20",3,"48 h",48
"STUDY-01","PC","STUDY-01-8",14,"Tx Period 1","ANALYTE1","ANALYTE1","PHARMACOKINETIC CONCENTRATION","99.875","ng/mL","99.875",99.875,"ng/mL","","","LAB1","PLASMA",0.1,140,"Treatment Period 1 Day 4","Treatment Period 1","2013-12-21T09:35",4,"72 h",72
"STUDY-01","PC","STUDY-01-8",15,"Tx Period 2","ANALYTE1","ANALYTE1","PHARMACOKINETIC CONCENTRATION","3.4","ng/mL","3.4",3.4,"ng/mL","","","LAB1","PLASMA",0.1,210,"Treatment Period 2 Day 1","Treatment Period 2","2013-12-28T08:45",11,"Pre-dose",-0.05
"STUDY-01","PC","STUDY-01-8",16,"Tx Period 2","ANALYTE1","ANALYTE1","PHARMACOKINETIC CONCENTRATION","13.125","ng/mL","13.125",13.125,"ng/mL","","","LAB1","PLASMA",0.1,210,"Treatment Period 2 Day 1","Treatment Period 2","2013-12-28T10:05",11,"0.5 h",0.5
"STUDY-01","PC","STUDY-01-8",17,"Tx Period 2","ANALYTE1","ANALYTE1","PHARMACOKINETIC CONCENTRATION","70.75","ng/mL","70.75",70.75,"ng/mL","","","LAB1","PLASMA",0.1,210,"Treatment Period 2 Day 1","Treatment Period 2","2013-12-28T10:35",11,"1 h",1
"STUDY-01","PC","STUDY-01-8",18,"Tx Period 2","ANALYTE1","ANALYTE1","PHARMACOKINETIC CONCENTRATION","157.5","ng/mL","157.5",157.5,"ng/mL","","","LAB1","PLASMA",0.1,210,"Treatment Period 2 Day 1","Treatment Period 2","2013-12-28T11:05",11,"1.5 h",1.5
"STUDY-01","PC","STUDY-01-8",19,"Tx Period 2","ANALYTE1","ANALYTE1","PHARMACOKINETIC CONCENTRATION","232.5","ng/mL","232.5",232.5,"ng/mL","","","LAB1","PLASMA",0.1,210,"Treatment Period 2 Day 1","Treatment Period 2","2013-12-28T11:35",11,"2 h",2
"STUDY-01","PC","STUDY-01-8",20,"Tx Period 2","ANALYTE1","ANALYTE1","PHARMACOKINETIC CONCENTRATION","347.5","ng/mL","347.5",347.5,"ng/mL","","","LAB1","PLASMA",0.1,210,"Treatment Period 2 Day 1","Treatment Period 2","2013-12-28T12:35",11,"3 h",3
"STUDY-01","PC","STUDY-01-8",21,"Tx Period 2","ANALYTE1","ANALYTE1","PHARMACOKINETIC CONCENTRATION","473.75","ng/mL","473.75",473.75,"ng/mL","","","LAB1","PLASMA",0.1,210,"Treatment Period 2 Day 1","Treatment Period 2","2013-12-28T13:35",11,"4 h",4
"STUDY-01","PC","STUDY-01-8",22,"Tx Period 2","ANALYTE1","ANALYTE1","PHARMACOKINETIC CONCENTRATION","727.5","ng/mL","727.5",727.5,"ng/mL","","","LAB1","PLASMA",0.1,210,"Treatment Period 2 Day 1","Treatment Period 2","2013-12-28T15:35",11,"6 h",6
"STUDY-01","PC","STUDY-01-8",23,"Tx Period 2","ANALYTE1","ANALYTE1","PHARMACOKINETIC CONCENTRATION","827.5","ng/mL","827.5",827.5,"ng/mL","","","LAB1","PLASMA",0.1,210,"Treatment Period 2 Day 1","Treatment Period 2","2013-12-28T17:35",11,"8 h",8
"STUDY-01","PC","STUDY-01-8",24,"Tx Period 2","ANALYTE1","ANALYTE1","PHARMACOKINETIC CONCENTRATION","476.25","ng/mL","476.25",476.25,"ng/mL","","","LAB1","PLASMA",0.1,210,"Treatment Period 2 Day 1","Treatment Period 2","2013-12-28T21:35",11,"12 h",12
"STUDY-01","PC","STUDY-01-8",25,"Tx Period 2","ANALYTE1","ANALYTE1","PHARMACOKINETIC CONCENTRATION","311.25","ng/mL","311.25",311.25,"ng/mL","","","LAB1","PLASMA",0.1,220,"Treatment Period 2 Day 2","Treatment Period 2","2013-12-29T09:35",12,"24 h",24
"STUDY-01","PC","STUDY-01-8",26,"Tx Period 2","ANALYTE1","ANALYTE1","PHARMACOKINETIC CONCENTRATION","172.5","ng/mL","172.5",172.5,"ng/mL","","","LAB1","PLASMA",0.1,220,"Treatment Period 2 Day 2","Treatment Period 2","2013-12-29T21:35",12,"36 h",36
"STUDY-01","PC","STUDY-01-8",27,"Tx Period 2","ANALYTE1","ANALYTE1","PHARMACOKINETIC CONCENTRATION","151.25","ng/mL","151.25",151.25,"ng/mL","","","LAB1","PLASMA",0.1,230,"Treatment Period 2 Day 3","Treatment Period 2","2013-12-30T09:35",13,"48 h",48
"STUDY-01","PC","STUDY-01-8",28,"Tx Period 2","ANALYTE1","ANALYTE1","PHARMACOKINETIC CONCENTRATION","95.375","ng/mL","95.375",95.375,"ng/mL","","","LAB1","PLASMA",0.1,240,"Treatment Period 2 Day 4","Treatment Period 2","2013-12-31T09:42",14,"72 h",72
"STUDY-01","PC","STUDY-01-9",1,"Tx Period 1","ANALYTE1","ANALYTE1","PHARMACOKINETIC CONCENTRATION","BQL","ng/mL","BQL",NA,"ng/mL","","","LAB1","PLASMA",0.1,110,"Treatment Period 1 Day 1","Treatment Period 1","2013-12-28T08:15",1,"Pre-dose",-0.05
"STUDY-01","PC","STUDY-01-9",2,"Tx Period 1","ANALYTE1","ANALYTE1","PHARMACOKINETIC CONCENTRATION","46.5","ng/mL","46.5",46.5,"ng/mL","","","LAB1","PLASMA",0.1,110,"Treatment Period 1 Day 1","Treatment Period 1","2013-12-28T09:35",1,"0.5 h",0.5
"STUDY-01","PC","STUDY-01-9",3,"Tx Period 1","ANALYTE1","ANALYTE1","PHARMACOKINETIC CONCENTRATION","325","ng/mL","325",325,"ng/mL","","","LAB1","PLASMA",0.1,110,"Treatment Period 1 Day 1","Treatment Period 1","2013-12-28T10:05",1,"1 h",1
"STUDY-01","PC","STUDY-01-9",4,"Tx Period 1","ANALYTE1","ANALYTE1","PHARMACOKINETIC CONCENTRATION","426.25","ng/mL","426.25",426.25,"ng/mL","","","LAB1","PLASMA",0.1,110,"Treatment Period 1 Day 1","Treatment Period 1","2013-12-28T10:35",1,"1.5 h",1.5
"STUDY-01","PC","STUDY-01-9",5,"Tx Period 1","ANALYTE1","ANALYTE1","PHARMACOKINETIC CONCENTRATION","396.25","ng/mL","396.25",396.25,"ng/mL","","","LAB1","PLASMA",0.1,110,"Treatment Period 1 Day 1","Treatment Period 1","2013-12-28T11:05",1,"2 h",2
"STUDY-01","PC","STUDY-01-9",6,"Tx Period 1","ANALYTE1","ANALYTE1","PHARMACOKINETIC CONCENTRATION","597.5","ng/mL","597.5",597.5,"ng/mL","","","LAB1","PLASMA",0.1,110,"Treatment Period 1 Day 1","Treatment Period 1","2013-12-28T12:05",1,"3 h",3
"STUDY-01","PC","STUDY-01-9",7,"Tx Period 1","ANALYTE1","ANALYTE1","PHARMACOKINETIC CONCENTRATION","618.75","ng/mL","618.75",618.75,"ng/mL","","","LAB1","PLASMA",0.1,110,"Treatment Period 1 Day 1","Treatment Period 1","2013-12-28T13:05",1,"4 h",4
"STUDY-01","PC","STUDY-01-9",8,"Tx Period 1","ANALYTE1","ANALYTE1","PHARMACOKINETIC CONCENTRATION","672.5","ng/mL","672.5",672.5,"ng/mL","","","LAB1","PLASMA",0.1,110,"Treatment Period 1 Day 1","Treatment Period 1","2013-12-28T15:05",1,"6 h",6
"STUDY-01","PC","STUDY-01-9",9,"Tx Period 1","ANALYTE1","ANALYTE1","PHARMACOKINETIC CONCENTRATION","520","ng/mL","520",520,"ng/mL","","","LAB1","PLASMA",0.1,110,"Treatment Period 1 Day 1","Treatment Period 1","2013-12-28T17:05",1,"8 h",8
"STUDY-01","PC","STUDY-01-9",10,"Tx Period 1","ANALYTE1","ANALYTE1","PHARMACOKINETIC CONCENTRATION","317.5","ng/mL","317.5",317.5,"ng/mL","","","LAB1","PLASMA",0.1,110,"Treatment Period 1 Day 1","Treatment Period 1","2013-12-28T21:05",1,"12 h",12
"STUDY-01","PC","STUDY-01-9",11,"Tx Period 1","ANALYTE1","ANALYTE1","PHARMACOKINETIC CONCENTRATION","191.25","ng/mL","191.25",191.25,"ng/mL","","","LAB1","PLASMA",0.1,120,"Treatment Period 1 Day 2","Treatment Period 1","2013-12-29T09:05",2,"24 h",24
"STUDY-01","PC","STUDY-01-9",12,"Tx Period 1","ANALYTE1","ANALYTE1","PHARMACOKINETIC CONCENTRATION","100.125","ng/mL","100.125",100.125,"ng/mL","","","LAB1","PLASMA",0.1,120,"Treatment Period 1 Day 2","Treatment Period 1","2013-12-29T21:05",2,"36 h",36
"STUDY-01","PC","STUDY-01-9",13,"Tx Period 1","ANALYTE1","ANALYTE1","PHARMACOKINETIC CONCENTRATION","102.75","ng/mL","102.75",102.75,"ng/mL","","","LAB1","PLASMA",0.1,130,"Treatment Period 1 Day 3","Treatment Period 1","2013-12-30T09:05",3,"48 h",48
"STUDY-01","PC","STUDY-01-9",14,"Tx Period 1","ANALYTE1","ANALYTE1","PHARMACOKINETIC CONCENTRATION","58.5","ng/mL","58.5",58.5,"ng/mL","","","LAB1","PLASMA",0.1,140,"Treatment Period 1 Day 4","Treatment Period 1","2013-12-31T09:05",4,"72 h",72
"STUDY-01","PC","STUDY-01-9",15,"Tx Period 2","ANALYTE1","ANALYTE1","PHARMACOKINETIC CONCENTRATION","2.375","ng/mL","2.375",2.375,"ng/mL","","","LAB1","PLASMA",0.1,210,"Treatment Period 2 Day 1","Treatment Period 2","2014-01-07T08:15",11,"Pre-dose",-0.05
"STUDY-01","PC","STUDY-01-9",16,"Tx Period 2","ANALYTE1","ANALYTE1","PHARMACOKINETIC CONCENTRATION","8.2625","ng/mL","8.2625",8.2625,"ng/mL","","","LAB1","PLASMA",0.1,210,"Treatment Period 2 Day 1","Treatment Period 2","2014-01-07T09:35",11,"0.5 h",0.5
"STUDY-01","PC","STUDY-01-9",17,"Tx Period 2","ANALYTE1","ANALYTE1","PHARMACOKINETIC CONCENTRATION","120.75","ng/mL","120.75",120.75,"ng/mL","","","LAB1","PLASMA",0.1,210,"Treatment Period 2 Day 1","Treatment Period 2","2014-01-07T10:05",11,"1 h",1
"STUDY-01","PC","STUDY-01-9",18,"Tx Period 2","ANALYTE1","ANALYTE1","PHARMACOKINETIC CONCENTRATION","278.75","ng/mL","278.75",278.75,"ng/mL","","","LAB1","PLASMA",0.1,210,"Treatment Period 2 Day 1","Treatment Period 2","2014-01-07T10:35",11,"1.5 h",1.5
"STUDY-01","PC","STUDY-01-9",19,"Tx Period 2","ANALYTE1","ANALYTE1","PHARMACOKINETIC CONCENTRATION","366.25","ng/mL","366.25",366.25,"ng/mL","","","LAB1","PLASMA",0.1,210,"Treatment Period 2 Day 1","Treatment Period 2","2014-01-07T11:05",11,"2 h",2
"STUDY-01","PC","STUDY-01-9",20,"Tx Period 2","ANALYTE1","ANALYTE1","PHARMACOKINETIC CONCENTRATION","462.5","ng/mL","462.5",462.5,"ng/mL","","","LAB1","PLASMA",0.1,210,"Treatment Period 2 Day 1","Treatment Period 2","2014-01-07T12:05",11,"3 h",3
"STUDY-01","PC","STUDY-01-9",21,"Tx Period 2","ANALYTE1","ANALYTE1","PHARMACOKINETIC CONCENTRATION","512.5","ng/mL","512.5",512.5,"ng/mL","","","LAB1","PLASMA",0.1,210,"Treatment Period 2 Day 1","Treatment Period 2","2014-01-07T13:05",11,"4 h",4
"STUDY-01","PC","STUDY-01-9",22,"Tx Period 2","ANALYTE1","ANALYTE1","PHARMACOKINETIC CONCENTRATION","600","ng/mL","600",600,"ng/mL","","","LAB1","PLASMA",0.1,210,"Treatment Period 2 Day 1","Treatment Period 2","2014-01-07T15:05",11,"6 h",6
"STUDY-01","PC","STUDY-01-9",23,"Tx Period 2","ANALYTE1","ANALYTE1","PHARMACOKINETIC CONCENTRATION","535","ng/mL","535",535,"ng/mL","","","LAB1","PLASMA",0.1,210,"Treatment Period 2 Day 1","Treatment Period 2","2014-01-07T17:05",11,"8 h",8
"STUDY-01","PC","STUDY-01-9",24,"Tx Period 2","ANALYTE1","ANALYTE1","PHARMACOKINETIC CONCENTRATION","376.25","ng/mL","376.25",376.25,"ng/mL","","","LAB1","PLASMA",0.1,210,"Treatment Period 2 Day 1","Treatment Period 2","2014-01-07T21:05",11,"12 h",12
"STUDY-01","PC","STUDY-01-9",25,"Tx Period 2","ANALYTE1","ANALYTE1","PHARMACOKINETIC CONCENTRATION","191.25","ng/mL","191.25",191.25,"ng/mL","","","LAB1","PLASMA",0.1,220,"Treatment Period 2 Day 2","Treatment Period 2","2014-01-08T09:05",12,"24 h",24
"STUDY-01","PC","STUDY-01-9",26,"Tx Period 2","ANALYTE1","ANALYTE1","PHARMACOKINETIC CONCENTRATION","145","ng/mL","145",145,"ng/mL","","","LAB1","PLASMA",0.1,220,"Treatment Period 2 Day 2","Treatment Period 2","2014-01-08T21:26",12,"36 h",36
"STUDY-01","PC","STUDY-01-9",27,"Tx Period 2","ANALYTE1","ANALYTE1","PHARMACOKINETIC CONCENTRATION","114.875","ng/mL","114.875",114.875,"ng/mL","","","LAB1","PLASMA",0.1,230,"Treatment Period 2 Day 3","Treatment Period 2","2014-01-09T09:05",13,"48 h",48
"STUDY-01","PC","STUDY-01-9",28,"Tx Period 2","ANALYTE1","ANALYTE1","PHARMACOKINETIC CONCENTRATION","59.25","ng/mL","59.25",59.25,"ng/mL","","","LAB1","PLASMA",0.1,240,"Treatment Period 2 Day 4","Treatment Period 2","2014-01-10T09:05",14,"72 h",72
"STUDY-01","PC","STUDY-01-10",1,"Tx Period 1","ANALYTE1","ANALYTE1","PHARMACOKINETIC CONCENTRATION","BQL","ng/mL","BQL",NA,"ng/mL","","","LAB1","PLASMA",0.1,110,"Treatment Period 1 Day 1","Treatment Period 1","2013-12-28T08:40",1,"Pre-dose",-0.05
"STUDY-01","PC","STUDY-01-10",2,"Tx Period 1","ANALYTE1","ANALYTE1","PHARMACOKINETIC CONCENTRATION","1.4625","ng/mL","1.4625",1.4625,"ng/mL","","","LAB1","PLASMA",0.1,110,"Treatment Period 1 Day 1","Treatment Period 1","2013-12-28T10:00",1,"0.5 h",0.5
"STUDY-01","PC","STUDY-01-10",3,"Tx Period 1","ANALYTE1","ANALYTE1","PHARMACOKINETIC CONCENTRATION","3.7875","ng/mL","3.7875",3.7875,"ng/mL","","","LAB1","PLASMA",0.1,110,"Treatment Period 1 Day 1","Treatment Period 1","2013-12-28T10:30",1,"1 h",1
"STUDY-01","PC","STUDY-01-10",4,"Tx Period 1","ANALYTE1","ANALYTE1","PHARMACOKINETIC CONCENTRATION","8.9375","ng/mL","8.9375",8.9375,"ng/mL","","","LAB1","PLASMA",0.1,110,"Treatment Period 1 Day 1","Treatment Period 1","2013-12-28T11:00",1,"1.5 h",1.5
"STUDY-01","PC","STUDY-01-10",5,"Tx Period 1","ANALYTE1","ANALYTE1","PHARMACOKINETIC CONCENTRATION","47.5","ng/mL","47.5",47.5,"ng/mL","","","LAB1","PLASMA",0.1,110,"Treatment Period 1 Day 1","Treatment Period 1","2013-12-28T11:30",1,"2 h",2
"STUDY-01","PC","STUDY-01-10",6,"Tx Period 1","ANALYTE1","ANALYTE1","PHARMACOKINETIC CONCENTRATION","188.75","ng/mL","188.75",188.75,"ng/mL","","","LAB1","PLASMA",0.1,110,"Treatment Period 1 Day 1","Treatment Period 1","2013-12-28T12:30",1,"3 h",3
"STUDY-01","PC","STUDY-01-10",7,"Tx Period 1","ANALYTE1","ANALYTE1","PHARMACOKINETIC CONCENTRATION","333.75","ng/mL","333.75",333.75,"ng/mL","","","LAB1","PLASMA",0.1,110,"Treatment Period 1 Day 1","Treatment Period 1","2013-12-28T13:30",1,"4 h",4
"STUDY-01","PC","STUDY-01-10",8,"Tx Period 1","ANALYTE1","ANALYTE1","PHARMACOKINETIC CONCENTRATION","708.75","ng/mL","708.75",708.75,"ng/mL","","","LAB1","PLASMA",0.1,110,"Treatment Period 1 Day 1","Treatment Period 1","2013-12-28T15:31",1,"6 h",6
"STUDY-01","PC","STUDY-01-10",9,"Tx Period 1","ANALYTE1","ANALYTE1","PHARMACOKINETIC CONCENTRATION","810","ng/mL","810",810,"ng/mL","","","LAB1","PLASMA",0.1,110,"Treatment Period 1 Day 1","Treatment Period 1","2013-12-28T17:30",1,"8 h",8
"STUDY-01","PC","STUDY-01-10",10,"Tx Period 1","ANALYTE1","ANALYTE1","PHARMACOKINETIC CONCENTRATION","603.75","ng/mL","603.75",603.75,"ng/mL","","","LAB1","PLASMA",0.1,110,"Treatment Period 1 Day 1","Treatment Period 1","2013-12-28T21:30",1,"12 h",12
"STUDY-01","PC","STUDY-01-10",11,"Tx Period 1","ANALYTE1","ANALYTE1","PHARMACOKINETIC CONCENTRATION","311.25","ng/mL","311.25",311.25,"ng/mL","","","LAB1","PLASMA",0.1,120,"Treatment Period 1 Day 2","Treatment Period 1","2013-12-29T09:30",2,"24 h",24
"STUDY-01","PC","STUDY-01-10",12,"Tx Period 1","ANALYTE1","ANALYTE1","PHARMACOKINETIC CONCENTRATION","167.5","ng/mL","167.5",167.5,"ng/mL","","","LAB1","PLASMA",0.1,120,"Treatment Period 1 Day 2","Treatment Period 1","2013-12-29T21:30",2,"36 h",36
"STUDY-01","PC","STUDY-01-10",13,"Tx Period 1","ANALYTE1","ANALYTE1","PHARMACOKINETIC CONCENTRATION","119.625","ng/mL","119.625",119.625,"ng/mL","","","LAB1","PLASMA",0.1,130,"Treatment Period 1 Day 3","Treatment Period 1","2013-12-30T09:30",3,"48 h",48
"STUDY-01","PC","STUDY-01-10",14,"Tx Period 1","ANALYTE1","ANALYTE1","PHARMACOKINETIC CONCENTRATION","74.625","ng/mL","74.625",74.625,"ng/mL","","","LAB1","PLASMA",0.1,140,"Treatment Period 1 Day 4","Treatment Period 1","2013-12-31T09:30",4,"72 h",72
"STUDY-01","PC","STUDY-01-10",15,"Tx Period 2","ANALYTE1","ANALYTE1","PHARMACOKINETIC CONCENTRATION","1.85","ng/mL","1.85",1.85,"ng/mL","","","LAB1","PLASMA",0.1,210,"Treatment Period 2 Day 1","Treatment Period 2","2014-01-07T08:40",11,"Pre-dose",-0.05
"STUDY-01","PC","STUDY-01-10",16,"Tx Period 2","ANALYTE1","ANALYTE1","PHARMACOKINETIC CONCENTRATION","200","ng/mL","200",200,"ng/mL","","","LAB1","PLASMA",0.1,210,"Treatment Period 2 Day 1","Treatment Period 2","2014-01-07T10:00",11,"0.5 h",0.5
"STUDY-01","PC","STUDY-01-10",17,"Tx Period 2","ANALYTE1","ANALYTE1","PHARMACOKINETIC CONCENTRATION","805","ng/mL","805",805,"ng/mL","","","LAB1","PLASMA",0.1,210,"Treatment Period 2 Day 1","Treatment Period 2","2014-01-07T10:30",11,"1 h",1
"STUDY-01","PC","STUDY-01-10",18,"Tx Period 2","ANALYTE1","ANALYTE1","PHARMACOKINETIC CONCENTRATION","1067.5","ng/mL","1067.5",1067.5,"ng/mL","","","LAB1","PLASMA",0.1,210,"Treatment Period 2 Day 1","Treatment Period 2","2014-01-07T11:00",11,"1.5 h",1.5
"STUDY-01","PC","STUDY-01-10",19,"Tx Period 2","ANALYTE1","ANALYTE1","PHARMACOKINETIC CONCENTRATION","1500","ng/mL","1500",1500,"ng/mL","","","LAB1","PLASMA",0.1,210,"Treatment Period 2 Day 1","Treatment Period 2","2014-01-07T11:30",11,"2 h",2
"STUDY-01","PC","STUDY-01-10",20,"Tx Period 2","ANALYTE1","ANALYTE1","PHARMACOKINETIC CONCENTRATION","1375","ng/mL","1375",1375,"ng/mL","","","LAB1","PLASMA",0.1,210,"Treatment Period 2 Day 1","Treatment Period 2","2014-01-07T12:30",11,"3 h",3
"STUDY-01","PC","STUDY-01-10",21,"Tx Period 2","ANALYTE1","ANALYTE1","PHARMACOKINETIC CONCENTRATION","1387.5","ng/mL","1387.5",1387.5,"ng/mL","","","LAB1","PLASMA",0.1,210,"Treatment Period 2 Day 1","Treatment Period 2","2014-01-07T13:30",11,"4 h",4
"STUDY-01","PC","STUDY-01-10",22,"Tx Period 2","ANALYTE1","ANALYTE1","PHARMACOKINETIC CONCENTRATION","1137.5","ng/mL","1137.5",1137.5,"ng/mL","","","LAB1","PLASMA",0.1,210,"Treatment Period 2 Day 1","Treatment Period 2","2014-01-07T15:30",11,"6 h",6
"STUDY-01","PC","STUDY-01-10",23,"Tx Period 2","ANALYTE1","ANALYTE1","PHARMACOKINETIC CONCENTRATION","922.5","ng/mL","922.5",922.5,"ng/mL","","","LAB1","PLASMA",0.1,210,"Treatment Period 2 Day 1","Treatment Period 2","2014-01-07T17:30",11,"8 h",8
"STUDY-01","PC","STUDY-01-10",24,"Tx Period 2","ANALYTE1","ANALYTE1","PHARMACOKINETIC CONCENTRATION","668.75","ng/mL","668.75",668.75,"ng/mL","","","LAB1","PLASMA",0.1,210,"Treatment Period 2 Day 1","Treatment Period 2","2014-01-07T21:30",11,"12 h",12
"STUDY-01","PC","STUDY-01-10",25,"Tx Period 2","ANALYTE1","ANALYTE1","PHARMACOKINETIC CONCENTRATION","356.25","ng/mL","356.25",356.25,"ng/mL","","","LAB1","PLASMA",0.1,220,"Treatment Period 2 Day 2","Treatment Period 2","2014-01-08T09:30",12,"24 h",24
"STUDY-01","PC","STUDY-01-10",26,"Tx Period 2","ANALYTE1","ANALYTE1","PHARMACOKINETIC CONCENTRATION","206.25","ng/mL","206.25",206.25,"ng/mL","","","LAB1","PLASMA",0.1,220,"Treatment Period 2 Day 2","Treatment Period 2","2014-01-08T21:30",12,"36 h",36
"STUDY-01","PC","STUDY-01-10",27,"Tx Period 2","ANALYTE1","ANALYTE1","PHARMACOKINETIC CONCENTRATION","130","ng/mL","130",130,"ng/mL","","","LAB1","PLASMA",0.1,230,"Treatment Period 2 Day 3","Treatment Period 2","2014-01-09T09:30",13,"48 h",48
"STUDY-01","PC","STUDY-01-10",28,"Tx Period 2","ANALYTE1","ANALYTE1","PHARMACOKINETIC CONCENTRATION","80.75","ng/mL","80.75",80.75,"ng/mL","","","LAB1","PLASMA",0.1,240,"Treatment Period 2 Day 4","Treatment Period 2","2014-01-10T09:30",14,"72 h",72
