"STUDYID","DOMAIN","USUBJID","EXSEQ","EXTRT","EXDOSE","EXDOSU","EXDOSFRM","EXDOSFRQ","EXROUTE","VISITNUM","VISIT","EPOCH","EXSTDTC","EXENDTC","EXSTDY","EXENDY","EXTPT","EXTPTNUM"
"STUDY-01","EX","STUDY-01-1",1,"B",100,"mg","TABLET","ONCE","ORAL",110,"Treatment Period 1 Day 1","Treatment Period 1","2013-12-18T09:00","2013-12-18T09:00",1,1,"0 h",0
"STUDY-01","EX","STUDY-01-1",2,"A",100,"mg","TABLET","ONCE","ORAL",210,"Treatment Period 2 Day 1","Treatment Period 2","2013-12-28T09:00","2013-12-28T09:00",11,11,"0 h",0
"STUDY-01","EX","STUDY-01-2",1,"A",100,"mg","TABLET","ONCE","ORAL",110,"Treatment Period 1 Day 1","Treatment Period 1","2013-12-18T09:05","2013-12-18T09:05",1,1,"0 h",0
"STUDY-01","EX","STUDY-01-3",1,"A",100,"mg","TABLET","ONCE","ORAL",110,"Treatment Period 1 Day 1","Treatment Period 1","2013-12-18T09:10","2013-12-18T09:10",1,1,"0 h",0
"STUDY-01","EX","STUDY-01-3",2,"B",100,"mg","TABLET","ONCE","ORAL",210,"Treatment Period 2 Day 1","Treatment Period 2","2013-12-28T09:10","2013-12-28T09:10",11,11,"0 h",0
"STUDY-01","EX","STUDY-01-4",1,"B",100,"mg","TABLET","ONCE","ORAL",110,"Treatment Period 1 Day 1","Treatment Period 1","2013-12-18T09:15","2013-12-18T09:15",1,1,"0 h",0
"STUDY-01","EX","STUDY-01-4",2,"A",100,"mg","TABLET","ONCE","ORAL",210,"Treatment Period 2 Day 1","Treatment Period 2","2013-12-28T09:15","2013-12-28T09:15",11,11,"0 h",0
"STUDY-01","EX","STUDY-01-5",1,"B",100,"mg","TABLET","ONCE","ORAL",110,"Treatment Period 1 Day 1","Treatment Period 1","2013-12-18T09:20","2013-12-18T09:20",1,1,"0 h",0
"STUDY-01","EX","STUDY-01-5",2,"A",100,"mg","TABLET","ONCE","ORAL",210,"Treatment Period 2 Day 1","Treatment Period 2","2013-12-28T09:20","2013-12-28T09:20",11,11,"0 h",0
"STUDY-01","EX","STUDY-01-6",1,"A",100,"mg","TABLET","ONCE","ORAL",110,"Treatment Period 1 Day 1","Treatment Period 1","2013-12-18T09:25","2013-12-18T09:25",1,1,"0 h",0
"STUDY-01","EX","STUDY-01-6",2,"B",100,"mg","TABLET","ONCE","ORAL",210,"Treatment Period 2 Day 1","Treatment Period 2","2013-12-28T09:25","2013-12-28T09:25",11,11,"0 h",0
"STUDY-01","EX","STUDY-01-7",1,"B",100,"mg","TABLET","ONCE","ORAL",110,"Treatment Period 1 Day 1","Treatment Period 1","2013-12-18T09:30","2013-12-18T09:30",1,1,"0 h",0
"STUDY-01","EX","STUDY-01-8",1,"A",100,"mg","TABLET","ONCE","ORAL",110,"Treatment Period 1 Day 1","Treatment Period 1","2013-12-18T09:35","2013-12-18T09:35",1,1,"0 h",0
"STUDY-01","EX","STUDY-01-8",2,"B",100,"mg","TABLET","ONCE","ORAL",210,"Treatment Period 2 Day 1","Treatment Period 2","2013-12-28T09:35","2013-12-28T09:35",11,11,"0 h",0
"STUDY-01","EX","STUDY-01-9",1,"A",100,"mg","TABLET","ONCE","ORAL",110,"Treatment Period 1 Day 1","Treatment Period 1","2013-12-28T09:05","2013-12-28T09:05",1,1,"0 h",0
"STUDY-01","EX","STUDY-01-9",2,"B",100,"mg","TABLET","ONCE","ORAL",210,"Treatment Period 2 Day 1","Treatment Period 2","2014-01-07T09:05","2014-01-07T09:05",11,11,"0 h",0
"STUDY-01","EX","STUDY-01-10",1,"B",100,"mg","TABLET","ONCE","ORAL",110,"Treatment Period 1 Day 1","Treatment Period 1","2013-12-28T09:30","2013-12-28T09:30",1,1,"0 h",0
"STUDY-01","EX","STUDY-01-10",2,"A",100,"mg","TABLET","ONCE","ORAL",210,"Treatment Period 2 Day 1","Treatment Period 2","2014-01-07T09:30","2014-01-07T09:30",11,11,"0 h",0
